"","subject_id","task","trial_type","trial_index","time_elapsed","internal_node_id","study_id","session_id","group","rt","stimulus","width","height","webaudio","browser","browser_version","mobile","os","fullscreen","vsync_rate","webcam","microphone","success","timeout","failed_images","failed_audio","failed_video","accuracy","size","culture","loct","number","document.id","ambiguous","objects","invisible","chaos","complex","passedChecks","zipcode","age","sex","gender","gender-self-describe","ethnicity","ethnicity-self-describe","outsideUS","outsideUS_years","surveyComments"
"1","564f2da09b1249000b7eafd5","svTrial","survey",8,77056,"0.0-2.0-6.0","65553732575bb29198a888d7","655655c869e65158ed81bc52",8,"29959","Hokkaido_large_pos_2_2.jpg",NA,NA,NA,NA,NA,NA,NA,NA,NA,NA,NA,NA,NA,NA,NA,NA,"[]","small",1,"sch",2,1,3,2,4,3,2,1,"76201","32","female","man","","latino","","No","",""
"2","564f2da09b1249000b7eafd5","svTrial","survey",9,104280,"0.0-2.0-7.0","65553732575bb29198a888d7","655655c869e65158ed81bc52",8,"27213","Tokyo_middle_pos_2_1.jpg",NA,NA,NA,NA,NA,NA,NA,NA,NA,NA,NA,NA,NA,NA,NA,NA,"[]","large",1,"pos",2,2,4,1,4,1,2,1,"76201","32","female","man","","latino","","No","",""
"3","564f2da09b1249000b7eafd5","svTrial","survey",10,131106,"0.0-2.0-8.0","65553732575bb29198a888d7","655655c869e65158ed81bc52",8,"26815","Tokyo_middle_pos_1_2.jpg",NA,NA,NA,NA,NA,NA,NA,NA,NA,NA,NA,NA,NA,NA,NA,NA,"[]","large",1,"sch",1,3,2,3,3,2,2,1,"76201","32","female","man","","latino","","No","",""
"4","564f2da09b1249000b7eafd5","svTrial","survey",11,155297,"0.0-2.0-9.0","65553732575bb29198a888d7","655655c869e65158ed81bc52",8,"24178","Kanagawa_middle_sch_7_1.jpg",NA,NA,NA,NA,NA,NA,NA,NA,NA,NA,NA,NA,NA,NA,NA,NA,"[]","large",1,"pos",7,4,4,3,4,4,3,1,"76201","32","female","man","","latino","","No","",""
"5","564f2da09b1249000b7eafd5","svTrial","survey",12,189456,"0.0-2.0-10.0","65553732575bb29198a888d7","655655c869e65158ed81bc52",8,"34148","Ishikawa_large_pos_9_2.jpg",NA,NA,NA,NA,NA,NA,NA,NA,NA,NA,NA,NA,NA,NA,NA,NA,"[]","large",2,"pos",9,5,5,4,4,3,4,1,"76201","32","female","man","","latino","","No","",""
"6","564f2da09b1249000b7eafd5","svTrial","survey",13,203991,"0.0-2.0-11.0","65553732575bb29198a888d7","655655c869e65158ed81bc52",8,"14526","Okinawa_middle_pos_8_3.jpg",NA,NA,NA,NA,NA,NA,NA,NA,NA,NA,NA,NA,NA,NA,NA,NA,"[]","small",1,"pos",8,6,5,2,5,4,4,1,"76201","32","female","man","","latino","","No","",""
"7","564f2da09b1249000b7eafd5","svTrial","survey",14,218600,"0.0-2.0-12.0","65553732575bb29198a888d7","655655c869e65158ed81bc52",8,"14598","Toyama_middle_pos_6_3.jpg",NA,NA,NA,NA,NA,NA,NA,NA,NA,NA,NA,NA,NA,NA,NA,NA,"[]","small",2,"pos",6,7,2,1,3,2,2,1,"76201","32","female","man","","latino","","No","",""
"8","564f2da09b1249000b7eafd5","svTrial","survey",15,235840,"0.0-2.0-13.0","65553732575bb29198a888d7","655655c869e65158ed81bc52",8,"17230","Niigata_middle_sch_6_3.jpg",NA,NA,NA,NA,NA,NA,NA,NA,NA,NA,NA,NA,NA,NA,NA,NA,"[]","large",2,"sch",6,8,5,3,4,3,4,1,"76201","32","female","man","","latino","","No","",""
"9","564f2da09b1249000b7eafd5","svTrial","survey",16,282890,"0.0-2.0-14.0","65553732575bb29198a888d7","655655c869e65158ed81bc52",8,"47038","Toyama_large_sch_6_0.jpg",NA,NA,NA,NA,NA,NA,NA,NA,NA,NA,NA,NA,NA,NA,NA,NA,"[]","middle",2,"sch",6,9,4,1,4,3,2,1,"76201","32","female","man","","latino","","No","",""
"10","564f2da09b1249000b7eafd5","svTrial","survey",17,297466,"0.0-2.0-15.0","65553732575bb29198a888d7","655655c869e65158ed81bc52",8,"14566","Hokkaido_middle_pos_7_2.jpg",NA,NA,NA,NA,NA,NA,NA,NA,NA,NA,NA,NA,NA,NA,NA,NA,"[]","small",1,"sch",7,10,1,1,2,1,2,1,"76201","32","female","man","","latino","","No","",""
"11","564f2da09b1249000b7eafd5","svTrial","survey",18,313105,"0.0-2.0-16.0","65553732575bb29198a888d7","655655c869e65158ed81bc52",8,"15631","Toyama_small_pos_1_2.jpg",NA,NA,NA,NA,NA,NA,NA,NA,NA,NA,NA,NA,NA,NA,NA,NA,"[]","small",2,"pos",1,11,4,5,4,3,4,1,"76201","32","female","man","","latino","","No","",""
"12","564f2da09b1249000b7eafd5","svTrial","survey",19,327016,"0.0-2.0-17.0","65553732575bb29198a888d7","655655c869e65158ed81bc52",8,"13900","Toyama_large_sch_2_1.jpg",NA,NA,NA,NA,NA,NA,NA,NA,NA,NA,NA,NA,NA,NA,NA,NA,"[]","large",2,"pos",2,12,3,3,4,3,3,1,"76201","32","female","man","","latino","","No","",""
"13","564f2da09b1249000b7eafd5","svTrial","survey",20,341634,"0.0-2.0-18.0","65553732575bb29198a888d7","655655c869e65158ed81bc52",8,"14611","Tokyo_large_sch_5_3.jpg",NA,NA,NA,NA,NA,NA,NA,NA,NA,NA,NA,NA,NA,NA,NA,NA,"[]","large",1,"sch",5,13,5,1,5,4,4,1,"76201","32","female","man","","latino","","No","",""
"14","564f2da09b1249000b7eafd5","svTrial","survey",22,365609,"0.0-2.0-20.0","65553732575bb29198a888d7","655655c869e65158ed81bc52",8,"17463","Hokkaido_large_sch_10_3.jpg",NA,NA,NA,NA,NA,NA,NA,NA,NA,NA,NA,NA,NA,NA,NA,NA,"[]","large",1,"pos",10,14,2,3,2,2,3,1,"76201","32","female","man","","latino","","No","",""
"15","564f2da09b1249000b7eafd5","svTrial","survey",23,378099,"0.0-2.0-21.0","65553732575bb29198a888d7","655655c869e65158ed81bc52",8,"12479","Okinawa_large_pos_11_3.jpg",NA,NA,NA,NA,NA,NA,NA,NA,NA,NA,NA,NA,NA,NA,NA,NA,"[]","large",1,"pos",11,15,3,4,3,5,4,1,"76201","32","female","man","","latino","","No","",""
"16","564f2da09b1249000b7eafd5","svTrial","survey",24,395260,"0.0-2.0-22.0","65553732575bb29198a888d7","655655c869e65158ed81bc52",8,"17151","Okinawa_small_pos_1_1.jpg",NA,NA,NA,NA,NA,NA,NA,NA,NA,NA,NA,NA,NA,NA,NA,NA,"[]","large",1,"sch",1,16,2,2,2,2,2,1,"76201","32","female","man","","latino","","No","",""
"17","564f2da09b1249000b7eafd5","svTrial","survey",25,408991,"0.0-2.0-23.0","65553732575bb29198a888d7","655655c869e65158ed81bc52",8,"13722","Akita_small_sch_2_0.jpg",NA,NA,NA,NA,NA,NA,NA,NA,NA,NA,NA,NA,NA,NA,NA,NA,"[]","small",2,"pos",2,17,4,1,4,2,3,1,"76201","32","female","man","","latino","","No","",""
"18","564f2da09b1249000b7eafd5","svTrial","survey",26,426087,"0.0-2.0-24.0","65553732575bb29198a888d7","655655c869e65158ed81bc52",8,"17084","Niigata_small_sch_3_2.jpg",NA,NA,NA,NA,NA,NA,NA,NA,NA,NA,NA,NA,NA,NA,NA,NA,"[]","middle",2,"sch",3,18,3,1,4,4,4,1,"76201","32","female","man","","latino","","No","",""
"19","564f2da09b1249000b7eafd5","svTrial","survey",27,441361,"0.0-2.0-25.0","65553732575bb29198a888d7","655655c869e65158ed81bc52",8,"15264","Kanagawa_large_sch_10_0.jpg",NA,NA,NA,NA,NA,NA,NA,NA,NA,NA,NA,NA,NA,NA,NA,NA,"[]","large",1,"pos",10,19,2,4,4,4,4,1,"76201","32","female","man","","latino","","No","",""
"20","564f2da09b1249000b7eafd5","svTrial","survey",28,461782,"0.0-2.0-26.0","65553732575bb29198a888d7","655655c869e65158ed81bc52",8,"20410","Niigata_middle_pos_2_2.jpg",NA,NA,NA,NA,NA,NA,NA,NA,NA,NA,NA,NA,NA,NA,NA,NA,"[]","large",2,"pos",2,20,1,1,2,2,2,1,"76201","32","female","man","","latino","","No","",""
"21","564f2da09b1249000b7eafd5","svTrial","survey",29,477309,"0.0-2.0-27.0","65553732575bb29198a888d7","655655c869e65158ed81bc52",8,"15517","Akita_large_pos_4_3.jpg",NA,NA,NA,NA,NA,NA,NA,NA,NA,NA,NA,NA,NA,NA,NA,NA,"[]","middle",2,"pos",4,21,2,3,2,3,2,1,"76201","32","female","man","","latino","","No","",""
"22","564f2da09b1249000b7eafd5","svTrial","survey",30,493158,"0.0-2.0-28.0","65553732575bb29198a888d7","655655c869e65158ed81bc52",8,"15840","Akita_middle_pos_3_1.jpg",NA,NA,NA,NA,NA,NA,NA,NA,NA,NA,NA,NA,NA,NA,NA,NA,"[]","middle",2,"pos",3,22,2,1,3,3,3,1,"76201","32","female","man","","latino","","No","",""
"23","564f2da09b1249000b7eafd5","svTrial","survey",31,517935,"0.0-2.0-29.0","65553732575bb29198a888d7","655655c869e65158ed81bc52",8,"24768","Kanagawa_small_pos_4_3.jpg",NA,NA,NA,NA,NA,NA,NA,NA,NA,NA,NA,NA,NA,NA,NA,NA,"[]","middle",1,"pos",4,23,2,2,3,3,4,1,"76201","32","female","man","","latino","","No","",""
"24","564f2da09b1249000b7eafd5","svTrial","survey",32,532421,"0.0-2.0-30.0","65553732575bb29198a888d7","655655c869e65158ed81bc52",8,"14474","Tokyo_small_sch_2_2.jpg",NA,NA,NA,NA,NA,NA,NA,NA,NA,NA,NA,NA,NA,NA,NA,NA,"[]","small",1,"pos",2,24,2,2,2,3,3,1,"76201","32","female","man","","latino","","No","",""
"25","564f2da09b1249000b7eafd5","svTrial","survey",34,549369,"0.0-2.0-32.0","65553732575bb29198a888d7","655655c869e65158ed81bc52",8,"11762","Ishikawa_small_sch_2_2.jpg",NA,NA,NA,NA,NA,NA,NA,NA,NA,NA,NA,NA,NA,NA,NA,NA,"[]","large",2,"sch",2,25,1,1,1,1,1,1,"76201","32","female","man","","latino","","No","",""
"26","564f2da09b1249000b7eafd5","svTrial","survey",35,562759,"0.0-2.0-33.0","65553732575bb29198a888d7","655655c869e65158ed81bc52",8,"13377","Toyama_middle_sch_4_1.jpg",NA,NA,NA,NA,NA,NA,NA,NA,NA,NA,NA,NA,NA,NA,NA,NA,"[]","middle",2,"sch",4,26,1,2,2,2,2,1,"76201","32","female","man","","latino","","No","",""
"27","564f2da09b1249000b7eafd5","svTrial","survey",36,575084,"0.0-2.0-34.0","65553732575bb29198a888d7","655655c869e65158ed81bc52",8,"12303","Tokyo_large_sch_1_3.jpg",NA,NA,NA,NA,NA,NA,NA,NA,NA,NA,NA,NA,NA,NA,NA,NA,"[]","middle",1,"pos",1,27,1,2,2,1,2,1,"76201","32","female","man","","latino","","No","",""
"28","564f2da09b1249000b7eafd5","svTrial","survey",37,592459,"0.0-2.0-35.0","65553732575bb29198a888d7","655655c869e65158ed81bc52",8,"17341","Ishikawa_large_pos_12_1.jpg",NA,NA,NA,NA,NA,NA,NA,NA,NA,NA,NA,NA,NA,NA,NA,NA,"[]","small",2,"sch",12,28,2,2,2,1,2,1,"76201","32","female","man","","latino","","No","",""
"29","564f2da09b1249000b7eafd5","svTrial","survey",38,605671,"0.0-2.0-36.0","65553732575bb29198a888d7","655655c869e65158ed81bc52",8,"13198","Kanagawa_large_pos_2_3.jpg",NA,NA,NA,NA,NA,NA,NA,NA,NA,NA,NA,NA,NA,NA,NA,NA,"[]","small",1,"pos",2,29,2,2,2,2,2,1,"76201","32","female","man","","latino","","No","",""
"30","564f2da09b1249000b7eafd5","svTrial","survey",39,617542,"0.0-2.0-37.0","65553732575bb29198a888d7","655655c869e65158ed81bc52",8,"11859","Niigata_middle_pos_4_0.jpg",NA,NA,NA,NA,NA,NA,NA,NA,NA,NA,NA,NA,NA,NA,NA,NA,"[]","small",2,"pos",4,30,1,2,2,1,1,1,"76201","32","female","man","","latino","","No","",""
"31","564f2da09b1249000b7eafd5","svTrial","survey",40,632497,"0.0-2.0-38.0","65553732575bb29198a888d7","655655c869e65158ed81bc52",8,"14942","Toyama_middle_pos_3_0.jpg",NA,NA,NA,NA,NA,NA,NA,NA,NA,NA,NA,NA,NA,NA,NA,NA,"[]","large",2,"pos",3,31,4,3,4,4,3,1,"76201","32","female","man","","latino","","No","",""
"32","564f2da09b1249000b7eafd5","svTrial","survey",41,647105,"0.0-2.0-39.0","65553732575bb29198a888d7","655655c869e65158ed81bc52",8,"14599","Toyama_large_pos_2_1.jpg",NA,NA,NA,NA,NA,NA,NA,NA,NA,NA,NA,NA,NA,NA,NA,NA,"[]","large",2,"sch",2,32,3,4,3,4,4,1,"76201","32","female","man","","latino","","No","",""
"33","564f2da09b1249000b7eafd5","svTrial","survey",42,661272,"0.0-2.0-40.0","65553732575bb29198a888d7","655655c869e65158ed81bc52",8,"14156","Okinawa_small_sch_2_1.jpg",NA,NA,NA,NA,NA,NA,NA,NA,NA,NA,NA,NA,NA,NA,NA,NA,"[]","middle",1,"sch",2,33,1,1,1,3,3,1,"76201","32","female","man","","latino","","No","",""
"34","564f2da09b1249000b7eafd5","svTrial","survey",43,675446,"0.0-2.0-41.0","65553732575bb29198a888d7","655655c869e65158ed81bc52",8,"14164","Tokyo_large_pos_8_0.jpg",NA,NA,NA,NA,NA,NA,NA,NA,NA,NA,NA,NA,NA,NA,NA,NA,"[]","small",1,"sch",8,34,1,2,1,3,3,1,"76201","32","female","man","","latino","","No","",""
"35","564f2da09b1249000b7eafd5","svTrial","survey",44,691909,"0.0-2.0-42.0","65553732575bb29198a888d7","655655c869e65158ed81bc52",8,"16456","Toyama_middle_sch_6_2.jpg",NA,NA,NA,NA,NA,NA,NA,NA,NA,NA,NA,NA,NA,NA,NA,NA,"[]","large",2,"pos",6,35,2,3,2,2,2,1,"76201","32","female","man","","latino","","No","",""
"36","564f2da09b1249000b7eafd5","svTrial","survey",45,700610,"0.0-2.0-43.0","65553732575bb29198a888d7","655655c869e65158ed81bc52",8,"8691","Niigata_large_pos_2_1.jpg",NA,NA,NA,NA,NA,NA,NA,NA,NA,NA,NA,NA,NA,NA,NA,NA,"[]","middle",2,"pos",2,36,NA,NA,NA,NA,NA,1,"76201","32","female","man","","latino","","No","",""
"37","564f2da09b1249000b7eafd5","svTrial","survey",46,724123,"0.0-2.0-44.0","65553732575bb29198a888d7","655655c869e65158ed81bc52",8,"23507","Ishikawa_middle_pos_8_1.jpg",NA,NA,NA,NA,NA,NA,NA,NA,NA,NA,NA,NA,NA,NA,NA,NA,"[]","small",2,"sch",8,37,3,3,3,4,2,1,"76201","32","female","man","","latino","","No","",""
"38","564f2da09b1249000b7eafd5","svTrial","survey",47,736838,"0.0-2.0-45.0","65553732575bb29198a888d7","655655c869e65158ed81bc52",8,"12704","Kanagawa_large_pos_11_2.jpg",NA,NA,NA,NA,NA,NA,NA,NA,NA,NA,NA,NA,NA,NA,NA,NA,"[]","large",1,"pos",11,38,2,3,2,3,3,1,"76201","32","female","man","","latino","","No","",""
"39","564f2da09b1249000b7eafd5","svTrial","survey",48,749682,"0.0-2.0-46.0","65553732575bb29198a888d7","655655c869e65158ed81bc52",8,"12834","Okinawa_middle_pos_7_2.jpg",NA,NA,NA,NA,NA,NA,NA,NA,NA,NA,NA,NA,NA,NA,NA,NA,"[]","middle",1,"sch",7,39,2,1,3,4,3,1,"76201","32","female","man","","latino","","No","",""
"40","564f2da09b1249000b7eafd5","svTrial","survey",49,765149,"0.0-2.0-47.0","65553732575bb29198a888d7","655655c869e65158ed81bc52",8,"15455","Ishikawa_middle_pos_4_3.jpg",NA,NA,NA,NA,NA,NA,NA,NA,NA,NA,NA,NA,NA,NA,NA,NA,"[]","large",2,"sch",4,40,1,2,2,3,2,1,"76201","32","female","man","","latino","","No","",""
"41","564f2da09b1249000b7eafd5","svTrial","survey",50,779358,"0.0-2.0-48.0","65553732575bb29198a888d7","655655c869e65158ed81bc52",8,"14199","Ishikawa_large_sch_11_1.jpg",NA,NA,NA,NA,NA,NA,NA,NA,NA,NA,NA,NA,NA,NA,NA,NA,"[]","small",2,"pos",11,41,2,1,3,3,3,1,"76201","32","female","man","","latino","","No","",""
"42","564f2da09b1249000b7eafd5","svTrial","survey",51,788746,"0.0-2.0-49.0","65553732575bb29198a888d7","655655c869e65158ed81bc52",8,"9379","Tokyo_large_pos_9_3.jpg",NA,NA,NA,NA,NA,NA,NA,NA,NA,NA,NA,NA,NA,NA,NA,NA,"[]","large",1,"pos",9,42,1,1,1,1,1,1,"76201","32","female","man","","latino","","No","",""
"43","564f2da09b1249000b7eafd5","svTrial","survey",52,798811,"0.0-2.0-50.0","65553732575bb29198a888d7","655655c869e65158ed81bc52",8,"10056","Akita_middle_pos_7_3.jpg",NA,NA,NA,NA,NA,NA,NA,NA,NA,NA,NA,NA,NA,NA,NA,NA,"[]","middle",2,"pos",7,43,1,1,1,1,1,1,"76201","32","female","man","","latino","","No","",""
"44","564f2da09b1249000b7eafd5","svTrial","survey",53,811757,"0.0-2.0-51.0","65553732575bb29198a888d7","655655c869e65158ed81bc52",8,"12936","Hokkaido_large_pos_7_2.jpg",NA,NA,NA,NA,NA,NA,NA,NA,NA,NA,NA,NA,NA,NA,NA,NA,"[]","middle",1,"sch",7,44,1,2,2,1,2,1,"76201","32","female","man","","latino","","No","",""
"45","564f2da09b1249000b7eafd5","svTrial","survey",54,825971,"0.0-2.0-52.0","65553732575bb29198a888d7","655655c869e65158ed81bc52",8,"14202","Okinawa_large_sch_10_1.jpg",NA,NA,NA,NA,NA,NA,NA,NA,NA,NA,NA,NA,NA,NA,NA,NA,"[]","large",1,"sch",10,45,3,1,3,4,3,1,"76201","32","female","man","","latino","","No","",""
"46","564f2da09b1249000b7eafd5","svTrial","survey",55,838953,"0.0-2.0-53.0","65553732575bb29198a888d7","655655c869e65158ed81bc52",8,"12972","Kanagawa_large_pos_6_1.jpg",NA,NA,NA,NA,NA,NA,NA,NA,NA,NA,NA,NA,NA,NA,NA,NA,"[]","small",1,"sch",6,46,1,1,2,2,2,1,"76201","32","female","man","","latino","","No","",""
"47","564f2da09b1249000b7eafd5","svTrial","survey",56,858747,"0.0-2.0-54.0","65553732575bb29198a888d7","655655c869e65158ed81bc52",8,"19782","Okinawa_middle_sch_5_3.jpg",NA,NA,NA,NA,NA,NA,NA,NA,NA,NA,NA,NA,NA,NA,NA,NA,"[]","small",1,"sch",5,47,2,3,3,2,2,1,"76201","32","female","man","","latino","","No","",""
"48","564f2da09b1249000b7eafd5","svTrial","survey",57,874902,"0.0-2.0-55.0","65553732575bb29198a888d7","655655c869e65158ed81bc52",8,"16145","Akita_middle_pos_2_0.jpg",NA,NA,NA,NA,NA,NA,NA,NA,NA,NA,NA,NA,NA,NA,NA,NA,"[]","large",2,"sch",2,48,2,2,3,4,2,1,"76201","32","female","man","","latino","","No","",""
