"","subject_id","task","trial_type","trial_index","time_elapsed","internal_node_id","study_id","session_id","group","rt","stimulus","width","height","webaudio","browser","browser_version","mobile","os","fullscreen","vsync_rate","webcam","microphone","success","timeout","failed_images","failed_audio","failed_video","accuracy","size","culture","loct","number","document.id","ambiguous","objects","invisible","chaos","complex","passedChecks","zipcode","age","sex","gender","gender-self-describe","ethnicity","ethnicity-self-describe","outsideUS","outsideUS_years","surveyComments"
"1","580a34af5773b50001aab166","svTrial","survey",8,2125375,"0.0-2.0-6.0","65553732575bb29198a888d7","65565af757a89cdab7efbf25",3,"21486","Niigata_middle_pos_1_2.jpg",NA,NA,NA,NA,NA,NA,NA,NA,NA,NA,NA,NA,NA,NA,NA,NA,"[]","middle",2,"pos",1,1,5,4,4,4,4,1,"82721","55","female","woman","","caucasian","","No","",""
"2","580a34af5773b50001aab166","svTrial","survey",9,2144298,"0.0-2.0-7.0","65553732575bb29198a888d7","65565af757a89cdab7efbf25",3,"18906","Hokkaido_large_sch_3_1.jpg",NA,NA,NA,NA,NA,NA,NA,NA,NA,NA,NA,NA,NA,NA,NA,NA,"[]","small",1,"sch",3,2,4,1,1,3,1,1,"82721","55","female","woman","","caucasian","","No","",""
"3","580a34af5773b50001aab166","svTrial","survey",10,2162301,"0.0-2.0-8.0","65553732575bb29198a888d7","65565af757a89cdab7efbf25",3,"17991","Niigata_middle_pos_7_2.jpg",NA,NA,NA,NA,NA,NA,NA,NA,NA,NA,NA,NA,NA,NA,NA,NA,"[]","large",2,"sch",7,3,4,4,4,3,3,1,"82721","55","female","woman","","caucasian","","No","",""
"4","580a34af5773b50001aab166","svTrial","survey",11,2177316,"0.0-2.0-9.0","65553732575bb29198a888d7","65565af757a89cdab7efbf25",3,"14999","Akita_large_sch_1_2.jpg",NA,NA,NA,NA,NA,NA,NA,NA,NA,NA,NA,NA,NA,NA,NA,NA,"[]","small",2,"pos",1,4,5,5,5,4,5,1,"82721","55","female","woman","","caucasian","","No","",""
"5","580a34af5773b50001aab166","svTrial","survey",12,2191007,"0.0-2.0-10.0","65553732575bb29198a888d7","65565af757a89cdab7efbf25",3,"13677","Hokkaido_middle_sch_2_3.jpg",NA,NA,NA,NA,NA,NA,NA,NA,NA,NA,NA,NA,NA,NA,NA,NA,"[]","small",1,"pos",2,5,4,3,4,4,4,1,"82721","55","female","woman","","caucasian","","No","",""
"6","580a34af5773b50001aab166","svTrial","survey",13,2204877,"0.0-2.0-11.0","65553732575bb29198a888d7","65565af757a89cdab7efbf25",3,"13857","Okinawa_middle_pos_6_1.jpg",NA,NA,NA,NA,NA,NA,NA,NA,NA,NA,NA,NA,NA,NA,NA,NA,"[]","large",1,"pos",6,6,4,4,4,4,4,1,"82721","55","female","woman","","caucasian","","No","",""
"7","580a34af5773b50001aab166","svTrial","survey",14,2218003,"0.0-2.0-12.0","65553732575bb29198a888d7","65565af757a89cdab7efbf25",3,"13113","Tokyo_small_sch_1_0.jpg",NA,NA,NA,NA,NA,NA,NA,NA,NA,NA,NA,NA,NA,NA,NA,NA,"[]","small",1,"sch",1,7,4,4,4,3,2,1,"82721","55","female","woman","","caucasian","","No","",""
"8","580a34af5773b50001aab166","svTrial","survey",15,2229574,"0.0-2.0-13.0","65553732575bb29198a888d7","65565af757a89cdab7efbf25",3,"11559","Ishikawa_large_pos_5_1.jpg",NA,NA,NA,NA,NA,NA,NA,NA,NA,NA,NA,NA,NA,NA,NA,NA,"[]","large",2,"pos",5,8,4,5,4,4,3,1,"82721","55","female","woman","","caucasian","","No","",""
"9","580a34af5773b50001aab166","svTrial","survey",16,2241292,"0.0-2.0-14.0","65553732575bb29198a888d7","65565af757a89cdab7efbf25",3,"11703","Hokkaido_large_sch_4_1.jpg",NA,NA,NA,NA,NA,NA,NA,NA,NA,NA,NA,NA,NA,NA,NA,NA,"[]","small",1,"sch",4,9,4,5,4,4,4,1,"82721","55","female","woman","","caucasian","","No","",""
"10","580a34af5773b50001aab166","svTrial","survey",17,2256994,"0.0-2.0-15.0","65553732575bb29198a888d7","65565af757a89cdab7efbf25",3,"15688","Hokkaido_middle_sch_6_2.jpg",NA,NA,NA,NA,NA,NA,NA,NA,NA,NA,NA,NA,NA,NA,NA,NA,"[]","small",1,"sch",6,10,2,3,2,2,3,1,"82721","55","female","woman","","caucasian","","No","",""
"11","580a34af5773b50001aab166","svTrial","survey",18,2264303,"0.0-2.0-16.0","65553732575bb29198a888d7","65565af757a89cdab7efbf25",3,"7294","Kanagawa_middle_pos_6_3.jpg",NA,NA,NA,NA,NA,NA,NA,NA,NA,NA,NA,NA,NA,NA,NA,NA,"[]","large",1,"sch",6,11,5,5,5,5,5,1,"82721","55","female","woman","","caucasian","","No","",""
"12","580a34af5773b50001aab166","svTrial","survey",20,2289297,"0.0-2.0-18.0","65553732575bb29198a888d7","65565af757a89cdab7efbf25",3,"12132","Hokkaido_middle_sch_1_0.jpg",NA,NA,NA,NA,NA,NA,NA,NA,NA,NA,NA,NA,NA,NA,NA,NA,"[]","small",1,"sch",1,12,2,1,1,2,1,1,"82721","55","female","woman","","caucasian","","No","",""
"13","580a34af5773b50001aab166","svTrial","survey",21,2297509,"0.0-2.0-19.0","65553732575bb29198a888d7","65565af757a89cdab7efbf25",3,"8200","Niigata_large_pos_9_3.jpg",NA,NA,NA,NA,NA,NA,NA,NA,NA,NA,NA,NA,NA,NA,NA,NA,"[]","small",2,"sch",9,13,2,2,1,1,1,1,"82721","55","female","woman","","caucasian","","No","",""
"14","580a34af5773b50001aab166","svTrial","survey",22,2309044,"0.0-2.0-20.0","65553732575bb29198a888d7","65565af757a89cdab7efbf25",3,"11520","Kanagawa_large_pos_7_1.jpg",NA,NA,NA,NA,NA,NA,NA,NA,NA,NA,NA,NA,NA,NA,NA,NA,"[]","small",1,"pos",7,14,4,5,4,5,5,1,"82721","55","female","woman","","caucasian","","No","",""
"15","580a34af5773b50001aab166","svTrial","survey",23,2317737,"0.0-2.0-21.0","65553732575bb29198a888d7","65565af757a89cdab7efbf25",3,"8679","Kanagawa_middle_pos_2_2.jpg",NA,NA,NA,NA,NA,NA,NA,NA,NA,NA,NA,NA,NA,NA,NA,NA,"[]","small",1,"pos",2,15,4,4,4,4,4,1,"82721","55","female","woman","","caucasian","","No","",""
"16","580a34af5773b50001aab166","svTrial","survey",24,2328410,"0.0-2.0-22.0","65553732575bb29198a888d7","65565af757a89cdab7efbf25",3,"10661","Kanagawa_middle_sch_1_2.jpg",NA,NA,NA,NA,NA,NA,NA,NA,NA,NA,NA,NA,NA,NA,NA,NA,"[]","small",1,"sch",1,16,5,4,4,4,4,1,"82721","55","female","woman","","caucasian","","No","",""
"17","580a34af5773b50001aab166","svTrial","survey",25,2338312,"0.0-2.0-23.0","65553732575bb29198a888d7","65565af757a89cdab7efbf25",3,"9887","Niigata_large_sch_3_0.jpg",NA,NA,NA,NA,NA,NA,NA,NA,NA,NA,NA,NA,NA,NA,NA,NA,"[]","large",2,"sch",3,17,5,5,4,4,5,1,"82721","55","female","woman","","caucasian","","No","",""
"18","580a34af5773b50001aab166","svTrial","survey",26,2349474,"0.0-2.0-24.0","65553732575bb29198a888d7","65565af757a89cdab7efbf25",3,"11149","Ishikawa_large_pos_6_1.jpg",NA,NA,NA,NA,NA,NA,NA,NA,NA,NA,NA,NA,NA,NA,NA,NA,"[]","middle",2,"pos",6,18,4,4,4,2,2,1,"82721","55","female","woman","","caucasian","","No","",""
"19","580a34af5773b50001aab166","svTrial","survey",27,2357212,"0.0-2.0-25.0","65553732575bb29198a888d7","65565af757a89cdab7efbf25",3,"7724","Toyama_large_pos_5_2.jpg",NA,NA,NA,NA,NA,NA,NA,NA,NA,NA,NA,NA,NA,NA,NA,NA,"[]","small",2,"pos",5,19,4,4,3,3,3,1,"82721","55","female","woman","","caucasian","","No","",""
"20","580a34af5773b50001aab166","svTrial","survey",28,2367391,"0.0-2.0-26.0","65553732575bb29198a888d7","65565af757a89cdab7efbf25",3,"10165","Akita_middle_sch_6_2.jpg",NA,NA,NA,NA,NA,NA,NA,NA,NA,NA,NA,NA,NA,NA,NA,NA,"[]","small",2,"sch",6,20,1,1,1,1,1,1,"82721","55","female","woman","","caucasian","","No","",""
"21","580a34af5773b50001aab166","svTrial","survey",29,2379098,"0.0-2.0-27.0","65553732575bb29198a888d7","65565af757a89cdab7efbf25",3,"11694","Niigata_small_pos_1_3.jpg",NA,NA,NA,NA,NA,NA,NA,NA,NA,NA,NA,NA,NA,NA,NA,NA,"[]","small",2,"pos",1,21,3,2,3,2,3,1,"82721","55","female","woman","","caucasian","","No","",""
"22","580a34af5773b50001aab166","svTrial","survey",30,2388158,"0.0-2.0-28.0","65553732575bb29198a888d7","65565af757a89cdab7efbf25",3,"9048","Kanagawa_small_pos_1_2.jpg",NA,NA,NA,NA,NA,NA,NA,NA,NA,NA,NA,NA,NA,NA,NA,NA,"[]","middle",1,"sch",1,22,5,5,4,5,5,1,"82721","55","female","woman","","caucasian","","No","",""
"23","580a34af5773b50001aab166","svTrial","survey",31,2404128,"0.0-2.0-29.0","65553732575bb29198a888d7","65565af757a89cdab7efbf25",3,"15958","Okinawa_small_pos_3_3.jpg",NA,NA,NA,NA,NA,NA,NA,NA,NA,NA,NA,NA,NA,NA,NA,NA,"[]","large",1,"pos",3,23,4,4,4,4,4,1,"82721","55","female","woman","","caucasian","","No","",""
"24","580a34af5773b50001aab166","svTrial","survey",32,2412277,"0.0-2.0-30.0","65553732575bb29198a888d7","65565af757a89cdab7efbf25",3,"8137","Niigata_large_pos_4_2.jpg",NA,NA,NA,NA,NA,NA,NA,NA,NA,NA,NA,NA,NA,NA,NA,NA,"[]","middle",2,"pos",4,24,2,2,2,2,2,1,"82721","55","female","woman","","caucasian","","No","",""
"25","580a34af5773b50001aab166","svTrial","survey",34,2511454,"0.0-2.0-32.0","65553732575bb29198a888d7","65565af757a89cdab7efbf25",3,"83391","Kanagawa_middle_sch_2_3.jpg",NA,NA,NA,NA,NA,NA,NA,NA,NA,NA,NA,NA,NA,NA,NA,NA,"[]","large",1,"sch",2,25,5,5,5,5,5,1,"82721","55","female","woman","","caucasian","","No","",""
"26","580a34af5773b50001aab166","svTrial","survey",35,2523926,"0.0-2.0-33.0","65553732575bb29198a888d7","65565af757a89cdab7efbf25",3,"12460","Toyama_small_sch_3_1.jpg",NA,NA,NA,NA,NA,NA,NA,NA,NA,NA,NA,NA,NA,NA,NA,NA,"[]","large",2,"pos",3,26,4,5,5,5,4,1,"82721","55","female","woman","","caucasian","","No","",""
"27","580a34af5773b50001aab166","svTrial","survey",36,2538745,"0.0-2.0-34.0","65553732575bb29198a888d7","65565af757a89cdab7efbf25",3,"14806","Okinawa_middle_pos_4_1.jpg",NA,NA,NA,NA,NA,NA,NA,NA,NA,NA,NA,NA,NA,NA,NA,NA,"[]","small",1,"sch",4,27,4,4,4,5,5,1,"82721","55","female","woman","","caucasian","","No","",""
"28","580a34af5773b50001aab166","svTrial","survey",37,2547795,"0.0-2.0-35.0","65553732575bb29198a888d7","65565af757a89cdab7efbf25",3,"9037","Tokyo_small_sch_4_0.jpg",NA,NA,NA,NA,NA,NA,NA,NA,NA,NA,NA,NA,NA,NA,NA,NA,"[]","large",1,"pos",4,28,3,4,3,3,4,1,"82721","55","female","woman","","caucasian","","No","",""
"29","580a34af5773b50001aab166","svTrial","survey",38,2562345,"0.0-2.0-36.0","65553732575bb29198a888d7","65565af757a89cdab7efbf25",3,"14538","Ishikawa_large_pos_7_2.jpg",NA,NA,NA,NA,NA,NA,NA,NA,NA,NA,NA,NA,NA,NA,NA,NA,"[]","large",2,"sch",7,29,3,3,4,3,3,1,"82721","55","female","woman","","caucasian","","No","",""
"30","580a34af5773b50001aab166","svTrial","survey",39,2573447,"0.0-2.0-37.0","65553732575bb29198a888d7","65565af757a89cdab7efbf25",3,"11090","Toyama_large_sch_4_0.jpg",NA,NA,NA,NA,NA,NA,NA,NA,NA,NA,NA,NA,NA,NA,NA,NA,"[]","small",2,"sch",4,30,4,4,3,3,3,1,"82721","55","female","woman","","caucasian","","No","",""
"31","580a34af5773b50001aab166","svTrial","survey",40,2771391,"0.0-2.0-38.0","65553732575bb29198a888d7","65565af757a89cdab7efbf25",3,"197931","Akita_large_pos_9_2.jpg",NA,NA,NA,NA,NA,NA,NA,NA,NA,NA,NA,NA,NA,NA,NA,NA,"[]","small",2,"pos",9,31,4,5,4,4,4,1,"82721","55","female","woman","","caucasian","","No","",""
"32","580a34af5773b50001aab166","svTrial","survey",41,2779343,"0.0-2.0-39.0","65553732575bb29198a888d7","65565af757a89cdab7efbf25",3,"7936","Akita_small_sch_1_1.jpg",NA,NA,NA,NA,NA,NA,NA,NA,NA,NA,NA,NA,NA,NA,NA,NA,"[]","middle",2,"sch",1,32,1,2,1,2,2,1,"82721","55","female","woman","","caucasian","","No","",""
"33","580a34af5773b50001aab166","svTrial","survey",42,2788749,"0.0-2.0-40.0","65553732575bb29198a888d7","65565af757a89cdab7efbf25",3,"9392","Hokkaido_large_sch_11_2.jpg",NA,NA,NA,NA,NA,NA,NA,NA,NA,NA,NA,NA,NA,NA,NA,NA,"[]","large",1,"sch",11,33,1,2,2,2,2,1,"82721","55","female","woman","","caucasian","","No","",""
"34","580a34af5773b50001aab166","svTrial","survey",43,2803427,"0.0-2.0-41.0","65553732575bb29198a888d7","65565af757a89cdab7efbf25",3,"14663","Toyama_middle_pos_1_0.jpg",NA,NA,NA,NA,NA,NA,NA,NA,NA,NA,NA,NA,NA,NA,NA,NA,"[]","middle",2,"pos",1,34,2,1,2,1,1,1,"82721","55","female","woman","","caucasian","","No","",""
"35","580a34af5773b50001aab166","svTrial","survey",44,2811090,"0.0-2.0-42.0","65553732575bb29198a888d7","65565af757a89cdab7efbf25",3,"7647","Tokyo_middle_pos_5_3.jpg",NA,NA,NA,NA,NA,NA,NA,NA,NA,NA,NA,NA,NA,NA,NA,NA,"[]","small",1,"sch",5,35,1,1,1,1,1,1,"82721","55","female","woman","","caucasian","","No","",""
"36","580a34af5773b50001aab166","svTrial","survey",45,2818977,"0.0-2.0-43.0","65553732575bb29198a888d7","65565af757a89cdab7efbf25",3,"7874","Kanagawa_large_pos_4_3.jpg",NA,NA,NA,NA,NA,NA,NA,NA,NA,NA,NA,NA,NA,NA,NA,NA,"[]","small",1,"pos",4,36,3,2,2,1,2,1,"82721","55","female","woman","","caucasian","","No","",""
"37","580a34af5773b50001aab166","svTrial","survey",46,2828241,"0.0-2.0-44.0","65553732575bb29198a888d7","65565af757a89cdab7efbf25",3,"9251","Toyama_large_sch_8_3.jpg",NA,NA,NA,NA,NA,NA,NA,NA,NA,NA,NA,NA,NA,NA,NA,NA,"[]","small",2,"pos",8,37,4,3,3,2,2,1,"82721","55","female","woman","","caucasian","","No","",""
"38","580a34af5773b50001aab166","svTrial","survey",47,2847381,"0.0-2.0-45.0","65553732575bb29198a888d7","65565af757a89cdab7efbf25",3,"19127","Hokkaido_large_pos_4_0.jpg",NA,NA,NA,NA,NA,NA,NA,NA,NA,NA,NA,NA,NA,NA,NA,NA,"[]","middle",1,"sch",4,38,4,4,4,3,4,1,"82721","55","female","woman","","caucasian","","No","",""
"39","580a34af5773b50001aab166","svTrial","survey",48,2857503,"0.0-2.0-46.0","65553732575bb29198a888d7","65565af757a89cdab7efbf25",3,"10109","Toyama_large_pos_12_1.jpg",NA,NA,NA,NA,NA,NA,NA,NA,NA,NA,NA,NA,NA,NA,NA,NA,"[]","large",2,"sch",12,39,5,5,5,5,4,1,"82721","55","female","woman","","caucasian","","No","",""
"40","580a34af5773b50001aab166","svTrial","survey",49,2865729,"0.0-2.0-47.0","65553732575bb29198a888d7","65565af757a89cdab7efbf25",3,"8212","Okinawa_large_pos_1_2.jpg",NA,NA,NA,NA,NA,NA,NA,NA,NA,NA,NA,NA,NA,NA,NA,NA,"[]","large",1,"sch",1,40,2,2,1,2,2,1,"82721","55","female","woman","","caucasian","","No","",""
"41","580a34af5773b50001aab166","svTrial","survey",50,2881959,"0.0-2.0-48.0","65553732575bb29198a888d7","65565af757a89cdab7efbf25",3,"16216","Okinawa_large_sch_2_0.jpg",NA,NA,NA,NA,NA,NA,NA,NA,NA,NA,NA,NA,NA,NA,NA,NA,"[]","small",1,"sch",2,41,4,4,4,4,4,1,"82721","55","female","woman","","caucasian","","No","",""
"42","580a34af5773b50001aab166","svTrial","survey",51,2891068,"0.0-2.0-49.0","65553732575bb29198a888d7","65565af757a89cdab7efbf25",3,"9094","Ishikawa_large_sch_6_2.jpg",NA,NA,NA,NA,NA,NA,NA,NA,NA,NA,NA,NA,NA,NA,NA,NA,"[]","small",2,"sch",6,42,2,3,3,2,2,1,"82721","55","female","woman","","caucasian","","No","",""
"43","580a34af5773b50001aab166","svTrial","survey",52,2901541,"0.0-2.0-50.0","65553732575bb29198a888d7","65565af757a89cdab7efbf25",3,"10460","Kanagawa_large_sch_11_0.jpg",NA,NA,NA,NA,NA,NA,NA,NA,NA,NA,NA,NA,NA,NA,NA,NA,"[]","large",1,"sch",11,43,3,4,4,4,2,1,"82721","55","female","woman","","caucasian","","No","",""
"44","580a34af5773b50001aab166","svTrial","survey",53,2911680,"0.0-2.0-51.0","65553732575bb29198a888d7","65565af757a89cdab7efbf25",3,"10126","Akita_large_sch_7_1.jpg",NA,NA,NA,NA,NA,NA,NA,NA,NA,NA,NA,NA,NA,NA,NA,NA,"[]","large",2,"sch",7,44,2,2,3,2,2,1,"82721","55","female","woman","","caucasian","","No","",""
"45","580a34af5773b50001aab166","svTrial","survey",54,2924912,"0.0-2.0-52.0","65553732575bb29198a888d7","65565af757a89cdab7efbf25",3,"13219","Akita_large_sch_10_2.jpg",NA,NA,NA,NA,NA,NA,NA,NA,NA,NA,NA,NA,NA,NA,NA,NA,"[]","small",2,"pos",10,45,4,4,5,4,5,1,"82721","55","female","woman","","caucasian","","No","",""
"46","580a34af5773b50001aab166","svTrial","survey",55,2939174,"0.0-2.0-53.0","65553732575bb29198a888d7","65565af757a89cdab7efbf25",3,"14251","Hokkaido_middle_pos_1_1.jpg",NA,NA,NA,NA,NA,NA,NA,NA,NA,NA,NA,NA,NA,NA,NA,NA,"[]","small",1,"sch",1,46,2,2,4,2,2,1,"82721","55","female","woman","","caucasian","","No","",""
"47","580a34af5773b50001aab166","svTrial","survey",56,2956103,"0.0-2.0-54.0","65553732575bb29198a888d7","65565af757a89cdab7efbf25",3,"16916","Ishikawa_middle_pos_6_0.jpg",NA,NA,NA,NA,NA,NA,NA,NA,NA,NA,NA,NA,NA,NA,NA,NA,"[]","middle",2,"pos",6,47,4,4,4,3,3,1,"82721","55","female","woman","","caucasian","","No","",""
"48","580a34af5773b50001aab166","svTrial","survey",57,2965643,"0.0-2.0-55.0","65553732575bb29198a888d7","65565af757a89cdab7efbf25",3,"9526","Ishikawa_large_pos_3_0.jpg",NA,NA,NA,NA,NA,NA,NA,NA,NA,NA,NA,NA,NA,NA,NA,NA,"[]","large",2,"pos",3,48,2,3,2,1,2,1,"82721","55","female","woman","","caucasian","","No","",""
