"","subject_id","task","trial_type","trial_index","time_elapsed","internal_node_id","study_id","session_id","group","rt","stimulus","width","height","webaudio","browser","browser_version","mobile","os","fullscreen","vsync_rate","webcam","microphone","success","timeout","failed_images","failed_audio","failed_video","accuracy","size","culture","loct","number","document.id","ambiguous","objects","invisible","chaos","complex","passedChecks","zipcode","age","sex","gender","gender-self-describe","ethnicity","ethnicity-self-describe","outsideUS","outsideUS_years","surveyComments"
"1","59048309c4ef1300011b1085","svTrial","survey",8,82421,"0.0-2.0-6.0","65553732575bb29198a888d7","65566dcaf7f76ced5af00ad5",5,"21356","Toyama_small_sch_1_0.jpg",NA,NA,NA,NA,NA,NA,NA,NA,NA,NA,NA,NA,NA,NA,NA,NA,"[]","small",2,"sch",1,1,1,2,2,1,2,1,"55705","42","female","woman","","caucasian","","No","n/a","trial #28 had no image that loaded so I chose #3 for all of the answers. all of the other images loaded correctly. "
"2","59048309c4ef1300011b1085","svTrial","survey",9,96855,"0.0-2.0-7.0","65553732575bb29198a888d7","65566dcaf7f76ced5af00ad5",5,"14409","Kanagawa_large_sch_5_2.jpg",NA,NA,NA,NA,NA,NA,NA,NA,NA,NA,NA,NA,NA,NA,NA,NA,"[]","middle",1,"pos",5,2,2,3,1,1,2,1,"55705","42","female","woman","","caucasian","","No","n/a","trial #28 had no image that loaded so I chose #3 for all of the answers. all of the other images loaded correctly. "
"3","59048309c4ef1300011b1085","svTrial","survey",10,115899,"0.0-2.0-8.0","65553732575bb29198a888d7","65566dcaf7f76ced5af00ad5",5,"19024","Tokyo_large_pos_7_1.jpg",NA,NA,NA,NA,NA,NA,NA,NA,NA,NA,NA,NA,NA,NA,NA,NA,"[]","large",1,"pos",7,3,2,1,2,1,1,1,"55705","42","female","woman","","caucasian","","No","n/a","trial #28 had no image that loaded so I chose #3 for all of the answers. all of the other images loaded correctly. "
"4","59048309c4ef1300011b1085","svTrial","survey",11,134244,"0.0-2.0-9.0","65553732575bb29198a888d7","65566dcaf7f76ced5af00ad5",5,"18327","Toyama_large_pos_8_2.jpg",NA,NA,NA,NA,NA,NA,NA,NA,NA,NA,NA,NA,NA,NA,NA,NA,"[]","large",2,"pos",8,4,1,3,1,1,1,1,"55705","42","female","woman","","caucasian","","No","n/a","trial #28 had no image that loaded so I chose #3 for all of the answers. all of the other images loaded correctly. "
"5","59048309c4ef1300011b1085","svTrial","survey",12,151356,"0.0-2.0-10.0","65553732575bb29198a888d7","65566dcaf7f76ced5af00ad5",5,"17091","Akita_large_sch_5_3.jpg",NA,NA,NA,NA,NA,NA,NA,NA,NA,NA,NA,NA,NA,NA,NA,NA,"[]","middle",2,"pos",5,5,2,2,1,1,1,1,"55705","42","female","woman","","caucasian","","No","n/a","trial #28 had no image that loaded so I chose #3 for all of the answers. all of the other images loaded correctly. "
"6","59048309c4ef1300011b1085","svTrial","survey",13,164651,"0.0-2.0-11.0","65553732575bb29198a888d7","65566dcaf7f76ced5af00ad5",5,"13278","Niigata_large_pos_1_0.jpg",NA,NA,NA,NA,NA,NA,NA,NA,NA,NA,NA,NA,NA,NA,NA,NA,"[]","middle",2,"pos",1,6,1,2,2,1,1,1,"55705","42","female","woman","","caucasian","","No","n/a","trial #28 had no image that loaded so I chose #3 for all of the answers. all of the other images loaded correctly. "
"7","59048309c4ef1300011b1085","svTrial","survey",14,174346,"0.0-2.0-12.0","65553732575bb29198a888d7","65566dcaf7f76ced5af00ad5",5,"9677","Akita_large_pos_11_3.jpg",NA,NA,NA,NA,NA,NA,NA,NA,NA,NA,NA,NA,NA,NA,NA,NA,"[]","small",2,"sch",11,7,1,1,1,1,1,1,"55705","42","female","woman","","caucasian","","No","n/a","trial #28 had no image that loaded so I chose #3 for all of the answers. all of the other images loaded correctly. "
"8","59048309c4ef1300011b1085","svTrial","survey",15,188098,"0.0-2.0-13.0","65553732575bb29198a888d7","65566dcaf7f76ced5af00ad5",5,"13736","Ishikawa_small_sch_1_3.jpg",NA,NA,NA,NA,NA,NA,NA,NA,NA,NA,NA,NA,NA,NA,NA,NA,"[]","large",2,"sch",1,8,1,1,1,1,1,1,"55705","42","female","woman","","caucasian","","No","n/a","trial #28 had no image that loaded so I chose #3 for all of the answers. all of the other images loaded correctly. "
"9","59048309c4ef1300011b1085","svTrial","survey",16,200997,"0.0-2.0-14.0","65553732575bb29198a888d7","65566dcaf7f76ced5af00ad5",5,"12881","Okinawa_large_sch_4_2.jpg",NA,NA,NA,NA,NA,NA,NA,NA,NA,NA,NA,NA,NA,NA,NA,NA,"[]","middle",1,"pos",4,9,3,3,2,2,2,1,"55705","42","female","woman","","caucasian","","No","n/a","trial #28 had no image that loaded so I chose #3 for all of the answers. all of the other images loaded correctly. "
"10","59048309c4ef1300011b1085","svTrial","survey",17,214411,"0.0-2.0-15.0","65553732575bb29198a888d7","65566dcaf7f76ced5af00ad5",5,"13398","Akita_large_pos_1_1.jpg",NA,NA,NA,NA,NA,NA,NA,NA,NA,NA,NA,NA,NA,NA,NA,NA,"[]","large",2,"pos",1,10,2,2,1,1,2,1,"55705","42","female","woman","","caucasian","","No","n/a","trial #28 had no image that loaded so I chose #3 for all of the answers. all of the other images loaded correctly. "
"11","59048309c4ef1300011b1085","svTrial","survey",18,231667,"0.0-2.0-16.0","65553732575bb29198a888d7","65566dcaf7f76ced5af00ad5",5,"17241","Hokkaido_large_pos_5_1.jpg",NA,NA,NA,NA,NA,NA,NA,NA,NA,NA,NA,NA,NA,NA,NA,NA,"[]","small",1,"pos",5,11,1,4,1,2,3,1,"55705","42","female","woman","","caucasian","","No","n/a","trial #28 had no image that loaded so I chose #3 for all of the answers. all of the other images loaded correctly. "
"12","59048309c4ef1300011b1085","svTrial","survey",19,247379,"0.0-2.0-17.0","65553732575bb29198a888d7","65566dcaf7f76ced5af00ad5",5,"15698","Tokyo_small_pos_2_2.jpg",NA,NA,NA,NA,NA,NA,NA,NA,NA,NA,NA,NA,NA,NA,NA,NA,"[]","small",1,"sch",2,12,2,3,2,2,3,1,"55705","42","female","woman","","caucasian","","No","n/a","trial #28 had no image that loaded so I chose #3 for all of the answers. all of the other images loaded correctly. "
"13","59048309c4ef1300011b1085","svTrial","survey",20,260930,"0.0-2.0-18.0","65553732575bb29198a888d7","65566dcaf7f76ced5af00ad5",5,"13530","Kanagawa_middle_sch_5_0.jpg",NA,NA,NA,NA,NA,NA,NA,NA,NA,NA,NA,NA,NA,NA,NA,NA,"[]","large",1,"sch",5,13,1,2,1,1,1,1,"55705","42","female","woman","","caucasian","","No","n/a","trial #28 had no image that loaded so I chose #3 for all of the answers. all of the other images loaded correctly. "
"14","59048309c4ef1300011b1085","svTrial","survey",21,276490,"0.0-2.0-19.0","65553732575bb29198a888d7","65566dcaf7f76ced5af00ad5",5,"15544","Hokkaido_middle_pos_4_1.jpg",NA,NA,NA,NA,NA,NA,NA,NA,NA,NA,NA,NA,NA,NA,NA,NA,"[]","middle",1,"sch",4,14,1,2,2,1,2,1,"55705","42","female","woman","","caucasian","","No","n/a","trial #28 had no image that loaded so I chose #3 for all of the answers. all of the other images loaded correctly. "
"15","59048309c4ef1300011b1085","svTrial","survey",22,288700,"0.0-2.0-20.0","65553732575bb29198a888d7","65566dcaf7f76ced5af00ad5",5,"12195","Kanagawa_middle_sch_8_0.jpg",NA,NA,NA,NA,NA,NA,NA,NA,NA,NA,NA,NA,NA,NA,NA,NA,"[]","small",1,"sch",8,15,1,1,2,1,1,1,"55705","42","female","woman","","caucasian","","No","n/a","trial #28 had no image that loaded so I chose #3 for all of the answers. all of the other images loaded correctly. "
"16","59048309c4ef1300011b1085","svTrial","survey",23,306658,"0.0-2.0-21.0","65553732575bb29198a888d7","65566dcaf7f76ced5af00ad5",5,"17944","Niigata_middle_pos_6_0.jpg",NA,NA,NA,NA,NA,NA,NA,NA,NA,NA,NA,NA,NA,NA,NA,NA,"[]","small",2,"sch",6,16,1,3,2,2,3,1,"55705","42","female","woman","","caucasian","","No","n/a","trial #28 had no image that loaded so I chose #3 for all of the answers. all of the other images loaded correctly. "
"17","59048309c4ef1300011b1085","svTrial","survey",24,347498,"0.0-2.0-22.0","65553732575bb29198a888d7","65566dcaf7f76ced5af00ad5",5,"40824","Ishikawa_large_pos_8_0.jpg",NA,NA,NA,NA,NA,NA,NA,NA,NA,NA,NA,NA,NA,NA,NA,NA,"[]","large",2,"pos",8,17,2,1,3,1,2,1,"55705","42","female","woman","","caucasian","","No","n/a","trial #28 had no image that loaded so I chose #3 for all of the answers. all of the other images loaded correctly. "
"18","59048309c4ef1300011b1085","svTrial","survey",25,358734,"0.0-2.0-23.0","65553732575bb29198a888d7","65566dcaf7f76ced5af00ad5",5,"11221","Kanagawa_middle_pos_4_2.jpg",NA,NA,NA,NA,NA,NA,NA,NA,NA,NA,NA,NA,NA,NA,NA,NA,"[]","small",1,"sch",4,18,NA,1,2,1,1,1,"55705","42","female","woman","","caucasian","","No","n/a","trial #28 had no image that loaded so I chose #3 for all of the answers. all of the other images loaded correctly. "
"19","59048309c4ef1300011b1085","svTrial","survey",26,371074,"0.0-2.0-24.0","65553732575bb29198a888d7","65566dcaf7f76ced5af00ad5",5,"12326","Toyama_large_pos_4_3.jpg",NA,NA,NA,NA,NA,NA,NA,NA,NA,NA,NA,NA,NA,NA,NA,NA,"[]","small",2,"sch",4,19,2,2,1,1,1,1,"55705","42","female","woman","","caucasian","","No","n/a","trial #28 had no image that loaded so I chose #3 for all of the answers. all of the other images loaded correctly. "
"20","59048309c4ef1300011b1085","svTrial","survey",27,384410,"0.0-2.0-25.0","65553732575bb29198a888d7","65566dcaf7f76ced5af00ad5",5,"13320","Kanagawa_large_sch_8_2.jpg",NA,NA,NA,NA,NA,NA,NA,NA,NA,NA,NA,NA,NA,NA,NA,NA,"[]","small",1,"pos",8,20,2,3,4,3,4,1,"55705","42","female","woman","","caucasian","","No","n/a","trial #28 had no image that loaded so I chose #3 for all of the answers. all of the other images loaded correctly. "
"21","59048309c4ef1300011b1085","svTrial","survey",28,395930,"0.0-2.0-26.0","65553732575bb29198a888d7","65566dcaf7f76ced5af00ad5",5,"11505","Akita_middle_sch_1_3.jpg",NA,NA,NA,NA,NA,NA,NA,NA,NA,NA,NA,NA,NA,NA,NA,NA,"[]","middle",2,"pos",1,21,1,1,1,1,1,1,"55705","42","female","woman","","caucasian","","No","n/a","trial #28 had no image that loaded so I chose #3 for all of the answers. all of the other images loaded correctly. "
"22","59048309c4ef1300011b1085","svTrial","survey",29,412010,"0.0-2.0-27.0","65553732575bb29198a888d7","65566dcaf7f76ced5af00ad5",5,"16066","Tokyo_large_pos_2_1.jpg",NA,NA,NA,NA,NA,NA,NA,NA,NA,NA,NA,NA,NA,NA,NA,NA,"[]","small",1,"sch",2,22,2,3,2,3,3,1,"55705","42","female","woman","","caucasian","","No","n/a","trial #28 had no image that loaded so I chose #3 for all of the answers. all of the other images loaded correctly. "
"23","59048309c4ef1300011b1085","svTrial","survey",30,428330,"0.0-2.0-28.0","65553732575bb29198a888d7","65566dcaf7f76ced5af00ad5",5,"16306","Akita_large_pos_12_3.jpg",NA,NA,NA,NA,NA,NA,NA,NA,NA,NA,NA,NA,NA,NA,NA,NA,"[]","small",2,"sch",12,23,1,4,2,1,2,1,"55705","42","female","woman","","caucasian","","No","n/a","trial #28 had no image that loaded so I chose #3 for all of the answers. all of the other images loaded correctly. "
"24","59048309c4ef1300011b1085","svTrial","survey",31,438538,"0.0-2.0-29.0","65553732575bb29198a888d7","65566dcaf7f76ced5af00ad5",5,"10193","Okinawa_middle_sch_3_2.jpg",NA,NA,NA,NA,NA,NA,NA,NA,NA,NA,NA,NA,NA,NA,NA,NA,"[]","middle",1,"pos",3,24,2,2,2,1,1,1,"55705","42","female","woman","","caucasian","","No","n/a","trial #28 had no image that loaded so I chose #3 for all of the answers. all of the other images loaded correctly. "
"25","59048309c4ef1300011b1085","svTrial","survey",33,467466,"0.0-2.0-31.0","65553732575bb29198a888d7","65566dcaf7f76ced5af00ad5",5,"13144","Hokkaido_small_sch_3_1.jpg",NA,NA,NA,NA,NA,NA,NA,NA,NA,NA,NA,NA,NA,NA,NA,NA,"[]","small",1,"sch",3,25,3,2,2,3,2,1,"55705","42","female","woman","","caucasian","","No","n/a","trial #28 had no image that loaded so I chose #3 for all of the answers. all of the other images loaded correctly. "
"26","59048309c4ef1300011b1085","svTrial","survey",34,481858,"0.0-2.0-32.0","65553732575bb29198a888d7","65566dcaf7f76ced5af00ad5",5,"14376","Niigata_large_pos_3_1.jpg",NA,NA,NA,NA,NA,NA,NA,NA,NA,NA,NA,NA,NA,NA,NA,NA,"[]","large",2,"pos",3,26,2,4,2,3,3,1,"55705","42","female","woman","","caucasian","","No","n/a","trial #28 had no image that loaded so I chose #3 for all of the answers. all of the other images loaded correctly. "
"27","59048309c4ef1300011b1085","svTrial","survey",35,496786,"0.0-2.0-33.0","65553732575bb29198a888d7","65566dcaf7f76ced5af00ad5",5,"14912","Hokkaido_small_pos_1_3.jpg",NA,NA,NA,NA,NA,NA,NA,NA,NA,NA,NA,NA,NA,NA,NA,NA,"[]","small",1,"pos",1,27,1,2,1,1,2,1,"55705","42","female","woman","","caucasian","","No","n/a","trial #28 had no image that loaded so I chose #3 for all of the answers. all of the other images loaded correctly. "
"28","59048309c4ef1300011b1085","svTrial","survey",36,512202,"0.0-2.0-34.0","65553732575bb29198a888d7","65566dcaf7f76ced5af00ad5",5,"15402","Kanagawa_small_sch_1_0.jpg",NA,NA,NA,NA,NA,NA,NA,NA,NA,NA,NA,NA,NA,NA,NA,NA,"[]","large",1,"sch",1,28,3,3,3,3,3,1,"55705","42","female","woman","","caucasian","","No","n/a","trial #28 had no image that loaded so I chose #3 for all of the answers. all of the other images loaded correctly. "
"29","59048309c4ef1300011b1085","svTrial","survey",37,526979,"0.0-2.0-35.0","65553732575bb29198a888d7","65566dcaf7f76ced5af00ad5",5,"14762","Toyama_middle_sch_1_1.jpg",NA,NA,NA,NA,NA,NA,NA,NA,NA,NA,NA,NA,NA,NA,NA,NA,"[]","large",2,"pos",1,29,2,1,2,1,1,1,"55705","42","female","woman","","caucasian","","No","n/a","trial #28 had no image that loaded so I chose #3 for all of the answers. all of the other images loaded correctly. "
"30","59048309c4ef1300011b1085","svTrial","survey",38,545081,"0.0-2.0-36.0","65553732575bb29198a888d7","65566dcaf7f76ced5af00ad5",5,"18088","Hokkaido_large_sch_2_3.jpg",NA,NA,NA,NA,NA,NA,NA,NA,NA,NA,NA,NA,NA,NA,NA,NA,"[]","small",1,"sch",2,30,2,3,2,2,3,1,"55705","42","female","woman","","caucasian","","No","n/a","trial #28 had no image that loaded so I chose #3 for all of the answers. all of the other images loaded correctly. "
"31","59048309c4ef1300011b1085","svTrial","survey",39,558673,"0.0-2.0-37.0","65553732575bb29198a888d7","65566dcaf7f76ced5af00ad5",5,"13574","Hokkaido_small_pos_3_2.jpg",NA,NA,NA,NA,NA,NA,NA,NA,NA,NA,NA,NA,NA,NA,NA,NA,"[]","middle",1,"sch",3,31,2,3,2,1,2,1,"55705","42","female","woman","","caucasian","","No","n/a","trial #28 had no image that loaded so I chose #3 for all of the answers. all of the other images loaded correctly. "
"32","59048309c4ef1300011b1085","svTrial","survey",40,577482,"0.0-2.0-38.0","65553732575bb29198a888d7","65566dcaf7f76ced5af00ad5",5,"18795","Akita_large_sch_4_1.jpg",NA,NA,NA,NA,NA,NA,NA,NA,NA,NA,NA,NA,NA,NA,NA,NA,"[]","small",2,"pos",4,32,4,2,2,4,1,1,"55705","42","female","woman","","caucasian","","No","n/a","trial #28 had no image that loaded so I chose #3 for all of the answers. all of the other images loaded correctly. "
"33","59048309c4ef1300011b1085","svTrial","survey",41,595482,"0.0-2.0-39.0","65553732575bb29198a888d7","65566dcaf7f76ced5af00ad5",5,"17984","Akita_small_pos_2_0.jpg",NA,NA,NA,NA,NA,NA,NA,NA,NA,NA,NA,NA,NA,NA,NA,NA,"[]","large",2,"sch",2,33,1,3,1,1,1,1,"55705","42","female","woman","","caucasian","","No","n/a","trial #28 had no image that loaded so I chose #3 for all of the answers. all of the other images loaded correctly. "
"34","59048309c4ef1300011b1085","svTrial","survey",42,606027,"0.0-2.0-40.0","65553732575bb29198a888d7","65566dcaf7f76ced5af00ad5",5,"10530","Tokyo_large_sch_8_1.jpg",NA,NA,NA,NA,NA,NA,NA,NA,NA,NA,NA,NA,NA,NA,NA,NA,"[]","large",1,"sch",8,34,1,2,2,1,1,1,"55705","42","female","woman","","caucasian","","No","n/a","trial #28 had no image that loaded so I chose #3 for all of the answers. all of the other images loaded correctly. "
"35","59048309c4ef1300011b1085","svTrial","survey",43,619050,"0.0-2.0-41.0","65553732575bb29198a888d7","65566dcaf7f76ced5af00ad5",5,"13009","Ishikawa_large_pos_10_0.jpg",NA,NA,NA,NA,NA,NA,NA,NA,NA,NA,NA,NA,NA,NA,NA,NA,"[]","small",2,"pos",10,35,1,3,2,1,2,1,"55705","42","female","woman","","caucasian","","No","n/a","trial #28 had no image that loaded so I chose #3 for all of the answers. all of the other images loaded correctly. "
"36","59048309c4ef1300011b1085","svTrial","survey",45,645401,"0.0-2.0-43.0","65553732575bb29198a888d7","65566dcaf7f76ced5af00ad5",5,"16588","Tokyo_middle_sch_6_3.jpg",NA,NA,NA,NA,NA,NA,NA,NA,NA,NA,NA,NA,NA,NA,NA,NA,"[]","small",1,"sch",6,36,3,2,3,3,3,1,"55705","42","female","woman","","caucasian","","No","n/a","trial #28 had no image that loaded so I chose #3 for all of the answers. all of the other images loaded correctly. "
"37","59048309c4ef1300011b1085","svTrial","survey",46,658825,"0.0-2.0-44.0","65553732575bb29198a888d7","65566dcaf7f76ced5af00ad5",5,"13408","Toyama_large_sch_9_2.jpg",NA,NA,NA,NA,NA,NA,NA,NA,NA,NA,NA,NA,NA,NA,NA,NA,"[]","middle",2,"sch",9,37,2,2,2,1,1,1,"55705","42","female","woman","","caucasian","","No","n/a","trial #28 had no image that loaded so I chose #3 for all of the answers. all of the other images loaded correctly. "
"38","59048309c4ef1300011b1085","svTrial","survey",47,668457,"0.0-2.0-45.0","65553732575bb29198a888d7","65566dcaf7f76ced5af00ad5",5,"9618","Niigata_small_pos_3_0.jpg",NA,NA,NA,NA,NA,NA,NA,NA,NA,NA,NA,NA,NA,NA,NA,NA,"[]","small",2,"pos",3,38,1,1,2,1,1,1,"55705","42","female","woman","","caucasian","","No","n/a","trial #28 had no image that loaded so I chose #3 for all of the answers. all of the other images loaded correctly. "
"39","59048309c4ef1300011b1085","svTrial","survey",48,683745,"0.0-2.0-46.0","65553732575bb29198a888d7","65566dcaf7f76ced5af00ad5",5,"15272","Tokyo_large_sch_7_3.jpg",NA,NA,NA,NA,NA,NA,NA,NA,NA,NA,NA,NA,NA,NA,NA,NA,"[]","large",1,"pos",7,39,2,2,2,3,2,1,"55705","42","female","woman","","caucasian","","No","n/a","trial #28 had no image that loaded so I chose #3 for all of the answers. all of the other images loaded correctly. "
"40","59048309c4ef1300011b1085","svTrial","survey",49,699321,"0.0-2.0-47.0","65553732575bb29198a888d7","65566dcaf7f76ced5af00ad5",5,"15562","Ishikawa_middle_pos_7_1.jpg",NA,NA,NA,NA,NA,NA,NA,NA,NA,NA,NA,NA,NA,NA,NA,NA,"[]","small",2,"sch",7,40,1,2,2,1,1,1,"55705","42","female","woman","","caucasian","","No","n/a","trial #28 had no image that loaded so I chose #3 for all of the answers. all of the other images loaded correctly. "
"41","59048309c4ef1300011b1085","svTrial","survey",50,710001,"0.0-2.0-48.0","65553732575bb29198a888d7","65566dcaf7f76ced5af00ad5",5,"10664","Toyama_large_pos_9_2.jpg",NA,NA,NA,NA,NA,NA,NA,NA,NA,NA,NA,NA,NA,NA,NA,NA,"[]","middle",2,"sch",9,41,1,2,1,1,1,1,"55705","42","female","woman","","caucasian","","No","n/a","trial #28 had no image that loaded so I chose #3 for all of the answers. all of the other images loaded correctly. "
"42","59048309c4ef1300011b1085","svTrial","survey",51,721145,"0.0-2.0-49.0","65553732575bb29198a888d7","65566dcaf7f76ced5af00ad5",5,"11130","Ishikawa_large_sch_4_1.jpg",NA,NA,NA,NA,NA,NA,NA,NA,NA,NA,NA,NA,NA,NA,NA,NA,"[]","middle",2,"sch",4,42,2,2,2,1,2,1,"55705","42","female","woman","","caucasian","","No","n/a","trial #28 had no image that loaded so I chose #3 for all of the answers. all of the other images loaded correctly. "
"43","59048309c4ef1300011b1085","svTrial","survey",52,736314,"0.0-2.0-50.0","65553732575bb29198a888d7","65566dcaf7f76ced5af00ad5",5,"15153","Kanagawa_large_pos_3_2.jpg",NA,NA,NA,NA,NA,NA,NA,NA,NA,NA,NA,NA,NA,NA,NA,NA,"[]","small",1,"sch",3,43,2,2,1,2,3,1,"55705","42","female","woman","","caucasian","","No","n/a","trial #28 had no image that loaded so I chose #3 for all of the answers. all of the other images loaded correctly. "
"44","59048309c4ef1300011b1085","svTrial","survey",53,752986,"0.0-2.0-51.0","65553732575bb29198a888d7","65566dcaf7f76ced5af00ad5",5,"16655","Akita_large_sch_8_2.jpg",NA,NA,NA,NA,NA,NA,NA,NA,NA,NA,NA,NA,NA,NA,NA,NA,"[]","middle",2,"pos",8,44,2,2,2,1,3,1,"55705","42","female","woman","","caucasian","","No","n/a","trial #28 had no image that loaded so I chose #3 for all of the answers. all of the other images loaded correctly. "
"45","59048309c4ef1300011b1085","svTrial","survey",54,768410,"0.0-2.0-52.0","65553732575bb29198a888d7","65566dcaf7f76ced5af00ad5",5,"15409","Hokkaido_small_sch_2_2.jpg",NA,NA,NA,NA,NA,NA,NA,NA,NA,NA,NA,NA,NA,NA,NA,NA,"[]","small",1,"pos",2,45,1,1,1,1,1,1,"55705","42","female","woman","","caucasian","","No","n/a","trial #28 had no image that loaded so I chose #3 for all of the answers. all of the other images loaded correctly. "
"46","59048309c4ef1300011b1085","svTrial","survey",55,779994,"0.0-2.0-53.0","65553732575bb29198a888d7","65566dcaf7f76ced5af00ad5",5,"11565","Ishikawa_small_sch_4_3.jpg",NA,NA,NA,NA,NA,NA,NA,NA,NA,NA,NA,NA,NA,NA,NA,NA,"[]","small",2,"sch",4,46,1,2,2,1,1,1,"55705","42","female","woman","","caucasian","","No","n/a","trial #28 had no image that loaded so I chose #3 for all of the answers. all of the other images loaded correctly. "
"47","59048309c4ef1300011b1085","svTrial","survey",56,790394,"0.0-2.0-54.0","65553732575bb29198a888d7","65566dcaf7f76ced5af00ad5",5,"10384","Kanagawa_small_sch_3_0.jpg",NA,NA,NA,NA,NA,NA,NA,NA,NA,NA,NA,NA,NA,NA,NA,NA,"[]","small",1,"pos",3,47,1,1,2,1,1,1,"55705","42","female","woman","","caucasian","","No","n/a","trial #28 had no image that loaded so I chose #3 for all of the answers. all of the other images loaded correctly. "
"48","59048309c4ef1300011b1085","svTrial","survey",57,805162,"0.0-2.0-55.0","65553732575bb29198a888d7","65566dcaf7f76ced5af00ad5",5,"14756","Tokyo_middle_pos_3_3.jpg",NA,NA,NA,NA,NA,NA,NA,NA,NA,NA,NA,NA,NA,NA,NA,NA,"[]","middle",1,"pos",3,48,2,3,2,1,3,1,"55705","42","female","woman","","caucasian","","No","n/a","trial #28 had no image that loaded so I chose #3 for all of the answers. all of the other images loaded correctly. "
