"","subject_id","task","trial_type","trial_index","time_elapsed","internal_node_id","study_id","session_id","group","rt","stimulus","width","height","webaudio","browser","browser_version","mobile","os","fullscreen","vsync_rate","webcam","microphone","success","timeout","failed_images","failed_audio","failed_video","accuracy","size","culture","loct","number","document.id","ambiguous","objects","invisible","chaos","complex","passedChecks","zipcode","age","sex","gender","gender-self-describe","ethnicity","ethnicity-self-describe","outsideUS","outsideUS_years","surveyComments"
"1","59598e604c20120001517c99","svTrial","survey",8,593598,"0.0-2.0-6.0","65553732575bb29198a888d7","65565c3c0f6de41e6c574ad3",8,"35511","Toyama_large_sch_2_2.jpg",NA,NA,NA,NA,NA,NA,NA,NA,NA,NA,NA,NA,NA,NA,NA,NA,"[]","large",2,"pos",2,1,2,3,NA,3,2,1,"95240","40","male","man","","caucasian","","Yes","8",""
"2","59598e604c20120001517c99","svTrial","survey",9,621490,"0.0-2.0-7.0","65553732575bb29198a888d7","65565c3c0f6de41e6c574ad3",8,"27880","Okinawa_large_pos_11_3.jpg",NA,NA,NA,NA,NA,NA,NA,NA,NA,NA,NA,NA,NA,NA,NA,NA,"[]","large",1,"pos",11,2,4,3,3,4,4,1,"95240","40","male","man","","caucasian","","Yes","8",""
"3","59598e604c20120001517c99","svTrial","survey",10,640686,"0.0-2.0-8.0","65553732575bb29198a888d7","65565c3c0f6de41e6c574ad3",8,"19187","Akita_middle_pos_3_0.jpg",NA,NA,NA,NA,NA,NA,NA,NA,NA,NA,NA,NA,NA,NA,NA,NA,"[]","middle",2,"pos",3,3,2,2,4,2,2,1,"95240","40","male","man","","caucasian","","Yes","8",""
"4","59598e604c20120001517c99","svTrial","survey",11,658337,"0.0-2.0-9.0","65553732575bb29198a888d7","65565c3c0f6de41e6c574ad3",8,"17643","Kanagawa_large_pos_2_3.jpg",NA,NA,NA,NA,NA,NA,NA,NA,NA,NA,NA,NA,NA,NA,NA,NA,"[]","small",1,"pos",2,4,2,3,3,2,3,1,"95240","40","male","man","","caucasian","","Yes","8",""
"5","59598e604c20120001517c99","svTrial","survey",12,672077,"0.0-2.0-10.0","65553732575bb29198a888d7","65565c3c0f6de41e6c574ad3",8,"13731","Akita_small_sch_2_3.jpg",NA,NA,NA,NA,NA,NA,NA,NA,NA,NA,NA,NA,NA,NA,NA,NA,"[]","small",2,"pos",2,5,1,1,4,1,2,1,"95240","40","male","man","","caucasian","","Yes","8",""
"6","59598e604c20120001517c99","svTrial","survey",13,689514,"0.0-2.0-11.0","65553732575bb29198a888d7","65565c3c0f6de41e6c574ad3",8,"17430","Ishikawa_large_pos_12_2.jpg",NA,NA,NA,NA,NA,NA,NA,NA,NA,NA,NA,NA,NA,NA,NA,NA,"[]","small",2,"sch",12,6,1,1,4,1,1,1,"95240","40","male","man","","caucasian","","Yes","8",""
"7","59598e604c20120001517c99","svTrial","survey",14,707133,"0.0-2.0-12.0","65553732575bb29198a888d7","65565c3c0f6de41e6c574ad3",8,"17611","Ishikawa_large_sch_11_0.jpg",NA,NA,NA,NA,NA,NA,NA,NA,NA,NA,NA,NA,NA,NA,NA,NA,"[]","small",2,"pos",11,7,3,3,3,3,3,1,"95240","40","male","man","","caucasian","","Yes","8",""
"8","59598e604c20120001517c99","svTrial","survey",15,719644,"0.0-2.0-13.0","65553732575bb29198a888d7","65565c3c0f6de41e6c574ad3",8,"12503","Toyama_middle_sch_4_3.jpg",NA,NA,NA,NA,NA,NA,NA,NA,NA,NA,NA,NA,NA,NA,NA,NA,"[]","middle",2,"sch",4,8,4,4,4,3,4,1,"95240","40","male","man","","caucasian","","Yes","8",""
"9","59598e604c20120001517c99","svTrial","survey",17,747079,"0.0-2.0-15.0","65553732575bb29198a888d7","65565c3c0f6de41e6c574ad3",8,"16729","Tokyo_large_sch_1_1.jpg",NA,NA,NA,NA,NA,NA,NA,NA,NA,NA,NA,NA,NA,NA,NA,NA,"[]","middle",1,"pos",1,9,4,3,4,3,3,1,"95240","40","male","man","","caucasian","","Yes","8",""
"10","59598e604c20120001517c99","svTrial","survey",18,752887,"0.0-2.0-16.0","65553732575bb29198a888d7","65565c3c0f6de41e6c574ad3",8,"5802","Okinawa_middle_pos_7_2.jpg",NA,NA,NA,NA,NA,NA,NA,NA,NA,NA,NA,NA,NA,NA,NA,NA,"[]","middle",1,"sch",7,10,1,1,1,1,2,1,"95240","40","male","man","","caucasian","","Yes","8",""
"11","59598e604c20120001517c99","svTrial","survey",19,762586,"0.0-2.0-17.0","65553732575bb29198a888d7","65565c3c0f6de41e6c574ad3",8,"9691","Ishikawa_middle_pos_8_0.jpg",NA,NA,NA,NA,NA,NA,NA,NA,NA,NA,NA,NA,NA,NA,NA,NA,"[]","small",2,"sch",8,11,3,4,4,4,4,1,"95240","40","male","man","","caucasian","","Yes","8",""
"12","59598e604c20120001517c99","svTrial","survey",20,772558,"0.0-2.0-18.0","65553732575bb29198a888d7","65565c3c0f6de41e6c574ad3",8,"9964","Hokkaido_large_pos_2_2.jpg",NA,NA,NA,NA,NA,NA,NA,NA,NA,NA,NA,NA,NA,NA,NA,NA,"[]","small",1,"sch",2,12,2,3,3,3,3,1,"95240","40","male","man","","caucasian","","Yes","8",""
"13","59598e604c20120001517c99","svTrial","survey",21,792972,"0.0-2.0-19.0","65553732575bb29198a888d7","65565c3c0f6de41e6c574ad3",8,"20407","Toyama_large_pos_2_3.jpg",NA,NA,NA,NA,NA,NA,NA,NA,NA,NA,NA,NA,NA,NA,NA,NA,"[]","large",2,"sch",2,13,2,2,2,2,2,1,"95240","40","male","man","","caucasian","","Yes","8",""
"14","59598e604c20120001517c99","svTrial","survey",22,804842,"0.0-2.0-20.0","65553732575bb29198a888d7","65565c3c0f6de41e6c574ad3",8,"11859","Hokkaido_large_sch_10_0.jpg",NA,NA,NA,NA,NA,NA,NA,NA,NA,NA,NA,NA,NA,NA,NA,NA,"[]","large",1,"pos",10,14,2,2,4,2,1,1,"95240","40","male","man","","caucasian","","Yes","8",""
"15","59598e604c20120001517c99","svTrial","survey",23,817631,"0.0-2.0-21.0","65553732575bb29198a888d7","65565c3c0f6de41e6c574ad3",8,"12779","Niigata_middle_sch_6_1.jpg",NA,NA,NA,NA,NA,NA,NA,NA,NA,NA,NA,NA,NA,NA,NA,NA,"[]","large",2,"sch",6,15,2,1,1,2,1,1,"95240","40","male","man","","caucasian","","Yes","8",""
"16","59598e604c20120001517c99","svTrial","survey",24,825183,"0.0-2.0-22.0","65553732575bb29198a888d7","65565c3c0f6de41e6c574ad3",8,"7545","Toyama_middle_pos_3_0.jpg",NA,NA,NA,NA,NA,NA,NA,NA,NA,NA,NA,NA,NA,NA,NA,NA,"[]","large",2,"pos",3,16,3,2,4,2,2,1,"95240","40","male","man","","caucasian","","Yes","8",""
"17","59598e604c20120001517c99","svTrial","survey",25,836545,"0.0-2.0-23.0","65553732575bb29198a888d7","65565c3c0f6de41e6c574ad3",8,"11355","Ishikawa_large_pos_9_0.jpg",NA,NA,NA,NA,NA,NA,NA,NA,NA,NA,NA,NA,NA,NA,NA,NA,"[]","large",2,"pos",9,17,2,2,4,2,2,1,"95240","40","male","man","","caucasian","","Yes","8",""
"18","59598e604c20120001517c99","svTrial","survey",26,850861,"0.0-2.0-24.0","65553732575bb29198a888d7","65565c3c0f6de41e6c574ad3",8,"14306","Kanagawa_large_pos_11_2.jpg",NA,NA,NA,NA,NA,NA,NA,NA,NA,NA,NA,NA,NA,NA,NA,NA,"[]","large",1,"pos",11,18,4,3,4,3,2,1,"95240","40","male","man","","caucasian","","Yes","8",""
"19","59598e604c20120001517c99","svTrial","survey",27,857989,"0.0-2.0-25.0","65553732575bb29198a888d7","65565c3c0f6de41e6c574ad3",8,"7120","Toyama_large_sch_6_0.jpg",NA,NA,NA,NA,NA,NA,NA,NA,NA,NA,NA,NA,NA,NA,NA,NA,"[]","middle",2,"sch",6,19,2,2,2,2,2,1,"95240","40","male","man","","caucasian","","Yes","8",""
"20","59598e604c20120001517c99","svTrial","survey",28,869526,"0.0-2.0-26.0","65553732575bb29198a888d7","65565c3c0f6de41e6c574ad3",8,"11529","Hokkaido_middle_pos_7_0.jpg",NA,NA,NA,NA,NA,NA,NA,NA,NA,NA,NA,NA,NA,NA,NA,NA,"[]","small",1,"sch",7,20,2,2,2,2,1,1,"95240","40","male","man","","caucasian","","Yes","8",""
"21","59598e604c20120001517c99","svTrial","survey",29,879348,"0.0-2.0-27.0","65553732575bb29198a888d7","65565c3c0f6de41e6c574ad3",8,"9814","Tokyo_large_pos_9_0.jpg",NA,NA,NA,NA,NA,NA,NA,NA,NA,NA,NA,NA,NA,NA,NA,NA,"[]","large",1,"pos",9,21,1,2,2,2,1,1,"95240","40","male","man","","caucasian","","Yes","8",""
"22","59598e604c20120001517c99","svTrial","survey",30,885334,"0.0-2.0-28.0","65553732575bb29198a888d7","65565c3c0f6de41e6c574ad3",8,"5977","Tokyo_large_sch_5_2.jpg",NA,NA,NA,NA,NA,NA,NA,NA,NA,NA,NA,NA,NA,NA,NA,NA,"[]","large",1,"sch",5,22,2,2,1,2,2,1,"95240","40","male","man","","caucasian","","Yes","8",""
"23","59598e604c20120001517c99","svTrial","survey",31,896044,"0.0-2.0-29.0","65553732575bb29198a888d7","65565c3c0f6de41e6c574ad3",8,"10703","Kanagawa_middle_sch_7_1.jpg",NA,NA,NA,NA,NA,NA,NA,NA,NA,NA,NA,NA,NA,NA,NA,NA,"[]","large",1,"pos",7,23,4,4,4,4,3,1,"95240","40","male","man","","caucasian","","Yes","8",""
"24","59598e604c20120001517c99","svTrial","survey",32,905344,"0.0-2.0-30.0","65553732575bb29198a888d7","65565c3c0f6de41e6c574ad3",8,"9292","Niigata_small_sch_3_0.jpg",NA,NA,NA,NA,NA,NA,NA,NA,NA,NA,NA,NA,NA,NA,NA,NA,"[]","middle",2,"sch",3,24,4,3,3,3,4,1,"95240","40","male","man","","caucasian","","Yes","8",""
"25","59598e604c20120001517c99","svTrial","survey",34,924663,"0.0-2.0-32.0","65553732575bb29198a888d7","65565c3c0f6de41e6c574ad3",8,"12751","Ishikawa_middle_pos_4_3.jpg",NA,NA,NA,NA,NA,NA,NA,NA,NA,NA,NA,NA,NA,NA,NA,NA,"[]","large",2,"sch",4,25,2,3,4,3,3,1,"95240","40","male","man","","caucasian","","Yes","8",""
"26","59598e604c20120001517c99","svTrial","survey",35,933178,"0.0-2.0-33.0","65553732575bb29198a888d7","65565c3c0f6de41e6c574ad3",8,"8508","Akita_middle_pos_7_3.jpg",NA,NA,NA,NA,NA,NA,NA,NA,NA,NA,NA,NA,NA,NA,NA,NA,"[]","middle",2,"pos",7,26,2,2,3,2,2,1,"95240","40","male","man","","caucasian","","Yes","8",""
"27","59598e604c20120001517c99","svTrial","survey",36,944338,"0.0-2.0-34.0","65553732575bb29198a888d7","65565c3c0f6de41e6c574ad3",8,"11151","Niigata_middle_pos_4_0.jpg",NA,NA,NA,NA,NA,NA,NA,NA,NA,NA,NA,NA,NA,NA,NA,NA,"[]","small",2,"pos",4,27,4,4,4,4,4,1,"95240","40","male","man","","caucasian","","Yes","8",""
"28","59598e604c20120001517c99","svTrial","survey",37,952126,"0.0-2.0-35.0","65553732575bb29198a888d7","65565c3c0f6de41e6c574ad3",8,"7782","Akita_middle_pos_2_3.jpg",NA,NA,NA,NA,NA,NA,NA,NA,NA,NA,NA,NA,NA,NA,NA,NA,"[]","large",2,"sch",2,28,1,2,3,2,2,1,"95240","40","male","man","","caucasian","","Yes","8",""
"29","59598e604c20120001517c99","svTrial","survey",38,960745,"0.0-2.0-36.0","65553732575bb29198a888d7","65565c3c0f6de41e6c574ad3",8,"8612","Niigata_middle_pos_2_3.jpg",NA,NA,NA,NA,NA,NA,NA,NA,NA,NA,NA,NA,NA,NA,NA,NA,"[]","large",2,"pos",2,29,2,2,3,2,2,1,"95240","40","male","man","","caucasian","","Yes","8",""
"30","59598e604c20120001517c99","svTrial","survey",39,970066,"0.0-2.0-37.0","65553732575bb29198a888d7","65565c3c0f6de41e6c574ad3",8,"9315","Okinawa_middle_pos_8_2.jpg",NA,NA,NA,NA,NA,NA,NA,NA,NA,NA,NA,NA,NA,NA,NA,NA,"[]","small",1,"pos",8,30,3,4,3,3,3,1,"95240","40","male","man","","caucasian","","Yes","8",""
"31","59598e604c20120001517c99","svTrial","survey",40,978422,"0.0-2.0-38.0","65553732575bb29198a888d7","65565c3c0f6de41e6c574ad3",8,"8349","Tokyo_small_sch_2_1.jpg",NA,NA,NA,NA,NA,NA,NA,NA,NA,NA,NA,NA,NA,NA,NA,NA,"[]","small",1,"pos",2,31,3,3,3,3,3,1,"95240","40","male","man","","caucasian","","Yes","8",""
"32","59598e604c20120001517c99","svTrial","survey",41,987901,"0.0-2.0-39.0","65553732575bb29198a888d7","65565c3c0f6de41e6c574ad3",8,"9473","Okinawa_large_sch_10_3.jpg",NA,NA,NA,NA,NA,NA,NA,NA,NA,NA,NA,NA,NA,NA,NA,NA,"[]","large",1,"sch",10,32,3,3,3,3,3,1,"95240","40","male","man","","caucasian","","Yes","8",""
"33","59598e604c20120001517c99","svTrial","survey",42,998442,"0.0-2.0-40.0","65553732575bb29198a888d7","65565c3c0f6de41e6c574ad3",8,"10534","Toyama_middle_sch_6_1.jpg",NA,NA,NA,NA,NA,NA,NA,NA,NA,NA,NA,NA,NA,NA,NA,NA,"[]","large",2,"pos",6,33,4,2,2,2,2,1,"95240","40","male","man","","caucasian","","Yes","8",""
"34","59598e604c20120001517c99","svTrial","survey",43,1008246,"0.0-2.0-41.0","65553732575bb29198a888d7","65565c3c0f6de41e6c574ad3",8,"9795","Tokyo_large_pos_8_0.jpg",NA,NA,NA,NA,NA,NA,NA,NA,NA,NA,NA,NA,NA,NA,NA,NA,"[]","small",1,"sch",8,34,2,2,3,2,2,1,"95240","40","male","man","","caucasian","","Yes","8",""
"35","59598e604c20120001517c99","svTrial","survey",44,1016322,"0.0-2.0-42.0","65553732575bb29198a888d7","65565c3c0f6de41e6c574ad3",8,"8067","Okinawa_middle_sch_5_2.jpg",NA,NA,NA,NA,NA,NA,NA,NA,NA,NA,NA,NA,NA,NA,NA,NA,"[]","small",1,"sch",5,35,4,1,1,1,1,1,"95240","40","male","man","","caucasian","","Yes","8",""
"36","59598e604c20120001517c99","svTrial","survey",45,1022159,"0.0-2.0-43.0","65553732575bb29198a888d7","65565c3c0f6de41e6c574ad3",8,"5831","Okinawa_small_pos_1_2.jpg",NA,NA,NA,NA,NA,NA,NA,NA,NA,NA,NA,NA,NA,NA,NA,NA,"[]","large",1,"sch",1,36,3,4,3,2,3,1,"95240","40","male","man","","caucasian","","Yes","8",""
"37","59598e604c20120001517c99","svTrial","survey",46,1030481,"0.0-2.0-44.0","65553732575bb29198a888d7","65565c3c0f6de41e6c574ad3",8,"8314","Kanagawa_large_pos_6_2.jpg",NA,NA,NA,NA,NA,NA,NA,NA,NA,NA,NA,NA,NA,NA,NA,NA,"[]","small",1,"sch",6,37,2,2,2,2,2,1,"95240","40","male","man","","caucasian","","Yes","8",""
"38","59598e604c20120001517c99","svTrial","survey",47,1036868,"0.0-2.0-45.0","65553732575bb29198a888d7","65565c3c0f6de41e6c574ad3",8,"6380","Hokkaido_large_pos_7_1.jpg",NA,NA,NA,NA,NA,NA,NA,NA,NA,NA,NA,NA,NA,NA,NA,NA,"[]","middle",1,"sch",7,38,4,2,3,3,2,1,"95240","40","male","man","","caucasian","","Yes","8",""
"39","59598e604c20120001517c99","svTrial","survey",48,1043078,"0.0-2.0-46.0","65553732575bb29198a888d7","65565c3c0f6de41e6c574ad3",8,"6202","Tokyo_middle_pos_1_0.jpg",NA,NA,NA,NA,NA,NA,NA,NA,NA,NA,NA,NA,NA,NA,NA,NA,"[]","large",1,"sch",1,39,3,3,3,3,2,1,"95240","40","male","man","","caucasian","","Yes","8",""
"40","59598e604c20120001517c99","svTrial","survey",49,1047407,"0.0-2.0-47.0","65553732575bb29198a888d7","65565c3c0f6de41e6c574ad3",8,"4321","Kanagawa_small_pos_4_0.jpg",NA,NA,NA,NA,NA,NA,NA,NA,NA,NA,NA,NA,NA,NA,NA,NA,"[]","middle",1,"pos",4,40,2,2,2,2,2,1,"95240","40","male","man","","caucasian","","Yes","8",""
"41","59598e604c20120001517c99","svTrial","survey",50,1054956,"0.0-2.0-48.0","65553732575bb29198a888d7","65565c3c0f6de41e6c574ad3",8,"7543","Ishikawa_small_sch_2_2.jpg",NA,NA,NA,NA,NA,NA,NA,NA,NA,NA,NA,NA,NA,NA,NA,NA,"[]","large",2,"sch",2,41,1,1,1,1,1,1,"95240","40","male","man","","caucasian","","Yes","8",""
"42","59598e604c20120001517c99","svTrial","survey",51,1065721,"0.0-2.0-49.0","65553732575bb29198a888d7","65565c3c0f6de41e6c574ad3",8,"10758","Toyama_middle_pos_6_2.jpg",NA,NA,NA,NA,NA,NA,NA,NA,NA,NA,NA,NA,NA,NA,NA,NA,"[]","small",2,"pos",6,42,3,3,2,2,2,1,"95240","40","male","man","","caucasian","","Yes","8",""
"43","59598e604c20120001517c99","svTrial","survey",52,1070700,"0.0-2.0-50.0","65553732575bb29198a888d7","65565c3c0f6de41e6c574ad3",8,"4970","Akita_large_pos_4_1.jpg",NA,NA,NA,NA,NA,NA,NA,NA,NA,NA,NA,NA,NA,NA,NA,NA,"[]","middle",2,"pos",4,43,2,3,2,2,2,1,"95240","40","male","man","","caucasian","","Yes","8",""
"44","59598e604c20120001517c99","svTrial","survey",53,1077899,"0.0-2.0-51.0","65553732575bb29198a888d7","65565c3c0f6de41e6c574ad3",8,"7193","Tokyo_middle_pos_2_0.jpg",NA,NA,NA,NA,NA,NA,NA,NA,NA,NA,NA,NA,NA,NA,NA,NA,"[]","large",1,"pos",2,44,4,3,4,3,4,1,"95240","40","male","man","","caucasian","","Yes","8",""
"45","59598e604c20120001517c99","svTrial","survey",54,1086430,"0.0-2.0-52.0","65553732575bb29198a888d7","65565c3c0f6de41e6c574ad3",8,"8522","Toyama_small_pos_1_0.jpg",NA,NA,NA,NA,NA,NA,NA,NA,NA,NA,NA,NA,NA,NA,NA,NA,"[]","small",2,"pos",1,45,3,3,3,2,3,1,"95240","40","male","man","","caucasian","","Yes","8",""
"46","59598e604c20120001517c99","svTrial","survey",55,1101154,"0.0-2.0-53.0","65553732575bb29198a888d7","65565c3c0f6de41e6c574ad3",8,"14718","Niigata_large_pos_2_1.jpg",NA,NA,NA,NA,NA,NA,NA,NA,NA,NA,NA,NA,NA,NA,NA,NA,"[]","middle",2,"pos",2,46,5,1,1,5,5,1,"95240","40","male","man","","caucasian","","Yes","8",""
"47","59598e604c20120001517c99","svTrial","survey",56,1110577,"0.0-2.0-54.0","65553732575bb29198a888d7","65565c3c0f6de41e6c574ad3",8,"9416","Okinawa_small_sch_2_0.jpg",NA,NA,NA,NA,NA,NA,NA,NA,NA,NA,NA,NA,NA,NA,NA,NA,"[]","middle",1,"sch",2,47,3,1,1,1,1,1,"95240","40","male","man","","caucasian","","Yes","8",""
"48","59598e604c20120001517c99","svTrial","survey",57,1120760,"0.0-2.0-55.0","65553732575bb29198a888d7","65565c3c0f6de41e6c574ad3",8,"10175","Kanagawa_large_sch_10_2.jpg",NA,NA,NA,NA,NA,NA,NA,NA,NA,NA,NA,NA,NA,NA,NA,NA,"[]","large",1,"pos",10,48,4,4,4,4,4,1,"95240","40","male","man","","caucasian","","Yes","8",""
