"","subject_id","task","trial_type","trial_index","time_elapsed","internal_node_id","study_id","session_id","group","rt","stimulus","width","height","webaudio","browser","browser_version","mobile","os","fullscreen","vsync_rate","webcam","microphone","success","timeout","failed_images","failed_audio","failed_video","accuracy","size","culture","loct","number","document.id","ambiguous","objects","invisible","chaos","complex","passedChecks","zipcode","age","sex","gender","gender-self-describe","ethnicity","ethnicity-self-describe","outsideUS","outsideUS_years","surveyComments"
"1","59b2d1e1773f41000148789e","svTrial","survey",8,45103,"0.0-2.0-6.0","65553732575bb29198a888d7","655656d3c0533e422e3f6dca",7,"19818","Niigata_middle_sch_3_0.jpg",NA,NA,NA,NA,NA,NA,NA,NA,NA,NA,NA,NA,NA,NA,NA,NA,"[]","middle",2,"pos",3,1,5,5,5,3,4,1,"45202","38","female","woman","","caucasian","","Yes","2",""
"2","59b2d1e1773f41000148789e","svTrial","survey",9,69436,"0.0-2.0-7.0","65553732575bb29198a888d7","655656d3c0533e422e3f6dca",7,"24325","Okinawa_middle_sch_6_2.jpg",NA,NA,NA,NA,NA,NA,NA,NA,NA,NA,NA,NA,NA,NA,NA,NA,"[]","small",1,"sch",6,2,4,4,5,3,4,1,"45202","38","female","woman","","caucasian","","Yes","2",""
"3","59b2d1e1773f41000148789e","svTrial","survey",10,89664,"0.0-2.0-8.0","65553732575bb29198a888d7","655656d3c0533e422e3f6dca",7,"20219","Ishikawa_small_pos_1_0.jpg",NA,NA,NA,NA,NA,NA,NA,NA,NA,NA,NA,NA,NA,NA,NA,NA,"[]","small",2,"pos",1,3,4,4,5,4,4,1,"45202","38","female","woman","","caucasian","","Yes","2",""
"4","59b2d1e1773f41000148789e","svTrial","survey",11,104550,"0.0-2.0-9.0","65553732575bb29198a888d7","655656d3c0533e422e3f6dca",7,"14877","Hokkaido_middle_sch_8_2.jpg",NA,NA,NA,NA,NA,NA,NA,NA,NA,NA,NA,NA,NA,NA,NA,NA,"[]","large",1,"pos",8,4,1,2,2,1,2,1,"45202","38","female","woman","","caucasian","","Yes","2",""
"5","59b2d1e1773f41000148789e","svTrial","survey",12,114761,"0.0-2.0-10.0","65553732575bb29198a888d7","655656d3c0533e422e3f6dca",7,"10203","Kanagawa_large_pos_8_3.jpg",NA,NA,NA,NA,NA,NA,NA,NA,NA,NA,NA,NA,NA,NA,NA,NA,"[]","large",1,"pos",8,5,4,5,NA,4,4,1,"45202","38","female","woman","","caucasian","","Yes","2",""
"6","59b2d1e1773f41000148789e","svTrial","survey",13,129734,"0.0-2.0-11.0","65553732575bb29198a888d7","655656d3c0533e422e3f6dca",7,"14967","Kanagawa_middle_sch_4_3.jpg",NA,NA,NA,NA,NA,NA,NA,NA,NA,NA,NA,NA,NA,NA,NA,NA,"[]","middle",1,"sch",4,6,3,3,4,3,3,1,"45202","38","female","woman","","caucasian","","Yes","2",""
"7","59b2d1e1773f41000148789e","svTrial","survey",14,144861,"0.0-2.0-12.0","65553732575bb29198a888d7","655656d3c0533e422e3f6dca",7,"15121","Kanagawa_large_sch_1_1.jpg",NA,NA,NA,NA,NA,NA,NA,NA,NA,NA,NA,NA,NA,NA,NA,NA,"[]","middle",1,"sch",1,7,3,3,2,2,3,1,"45202","38","female","woman","","caucasian","","Yes","2",""
"8","59b2d1e1773f41000148789e","svTrial","survey",15,156583,"0.0-2.0-13.0","65553732575bb29198a888d7","655656d3c0533e422e3f6dca",7,"11717","Akita_small_pos_3_1.jpg",NA,NA,NA,NA,NA,NA,NA,NA,NA,NA,NA,NA,NA,NA,NA,NA,"[]","small",2,"pos",3,8,1,1,2,1,NA,1,"45202","38","female","woman","","caucasian","","Yes","2",""
"9","59b2d1e1773f41000148789e","svTrial","survey",16,166677,"0.0-2.0-14.0","65553732575bb29198a888d7","655656d3c0533e422e3f6dca",7,"10087","Hokkaido_large_pos_8_0.jpg",NA,NA,NA,NA,NA,NA,NA,NA,NA,NA,NA,NA,NA,NA,NA,NA,"[]","small",1,"sch",8,9,1,1,1,1,1,1,"45202","38","female","woman","","caucasian","","Yes","2",""
"10","59b2d1e1773f41000148789e","svTrial","survey",17,174127,"0.0-2.0-15.0","65553732575bb29198a888d7","655656d3c0533e422e3f6dca",7,"7444","Akita_small_pos_1_3.jpg",NA,NA,NA,NA,NA,NA,NA,NA,NA,NA,NA,NA,NA,NA,NA,NA,"[]","middle",2,"pos",1,10,4,4,5,4,4,1,"45202","38","female","woman","","caucasian","","Yes","2",""
"11","59b2d1e1773f41000148789e","svTrial","survey",18,189934,"0.0-2.0-16.0","65553732575bb29198a888d7","655656d3c0533e422e3f6dca",7,"15799","Tokyo_middle_sch_4_0.jpg",NA,NA,NA,NA,NA,NA,NA,NA,NA,NA,NA,NA,NA,NA,NA,NA,"[]","large",1,"sch",4,11,2,3,3,3,3,1,"45202","38","female","woman","","caucasian","","Yes","2",""
"12","59b2d1e1773f41000148789e","svTrial","survey",19,199262,"0.0-2.0-17.0","65553732575bb29198a888d7","655656d3c0533e422e3f6dca",7,"9322","Ishikawa_large_sch_7_1.jpg",NA,NA,NA,NA,NA,NA,NA,NA,NA,NA,NA,NA,NA,NA,NA,NA,"[]","large",2,"pos",7,12,2,2,4,3,2,1,"45202","38","female","woman","","caucasian","","Yes","2",""
"13","59b2d1e1773f41000148789e","svTrial","survey",20,210248,"0.0-2.0-18.0","65553732575bb29198a888d7","655656d3c0533e422e3f6dca",7,"10981","Tokyo_large_pos_11_2.jpg",NA,NA,NA,NA,NA,NA,NA,NA,NA,NA,NA,NA,NA,NA,NA,NA,"[]","small",1,"sch",11,13,1,1,1,1,1,1,"45202","38","female","woman","","caucasian","","Yes","2",""
"14","59b2d1e1773f41000148789e","svTrial","survey",21,219909,"0.0-2.0-19.0","65553732575bb29198a888d7","655656d3c0533e422e3f6dca",7,"9656","Ishikawa_middle_sch_6_0.jpg",NA,NA,NA,NA,NA,NA,NA,NA,NA,NA,NA,NA,NA,NA,NA,NA,"[]","large",2,"sch",6,14,4,3,3,3,3,1,"45202","38","female","woman","","caucasian","","Yes","2",""
"15","59b2d1e1773f41000148789e","svTrial","survey",22,236844,"0.0-2.0-20.0","65553732575bb29198a888d7","655656d3c0533e422e3f6dca",7,"16927","Hokkaido_small_sch_1_3.jpg",NA,NA,NA,NA,NA,NA,NA,NA,NA,NA,NA,NA,NA,NA,NA,NA,"[]","small",1,"pos",1,15,2,1,2,2,2,1,"45202","38","female","woman","","caucasian","","Yes","2",""
"16","59b2d1e1773f41000148789e","svTrial","survey",23,244483,"0.0-2.0-21.0","65553732575bb29198a888d7","655656d3c0533e422e3f6dca",7,"7633","Tokyo_middle_pos_4_1.jpg",NA,NA,NA,NA,NA,NA,NA,NA,NA,NA,NA,NA,NA,NA,NA,NA,"[]","small",1,"pos",4,16,4,5,5,4,4,1,"45202","38","female","woman","","caucasian","","Yes","2",""
"17","59b2d1e1773f41000148789e","svTrial","survey",24,256109,"0.0-2.0-22.0","65553732575bb29198a888d7","655656d3c0533e422e3f6dca",7,"11617","Niigata_small_pos_4_0.jpg",NA,NA,NA,NA,NA,NA,NA,NA,NA,NA,NA,NA,NA,NA,NA,NA,"[]","middle",2,"sch",4,17,2,3,3,3,2,1,"45202","38","female","woman","","caucasian","","Yes","2",""
"18","59b2d1e1773f41000148789e","svTrial","survey",25,272345,"0.0-2.0-23.0","65553732575bb29198a888d7","655656d3c0533e422e3f6dca",7,"16230","Hokkaido_large_sch_9_2.jpg",NA,NA,NA,NA,NA,NA,NA,NA,NA,NA,NA,NA,NA,NA,NA,NA,"[]","large",1,"sch",9,18,3,2,3,3,3,1,"45202","38","female","woman","","caucasian","","Yes","2",""
"19","59b2d1e1773f41000148789e","svTrial","survey",26,280177,"0.0-2.0-24.0","65553732575bb29198a888d7","655656d3c0533e422e3f6dca",7,"7826","Akita_middle_pos_6_3.jpg",NA,NA,NA,NA,NA,NA,NA,NA,NA,NA,NA,NA,NA,NA,NA,NA,"[]","large",2,"sch",6,19,2,1,2,2,1,1,"45202","38","female","woman","","caucasian","","Yes","2",""
"20","59b2d1e1773f41000148789e","svTrial","survey",27,291209,"0.0-2.0-25.0","65553732575bb29198a888d7","655656d3c0533e422e3f6dca",7,"11024","Ishikawa_middle_sch_7_2.jpg",NA,NA,NA,NA,NA,NA,NA,NA,NA,NA,NA,NA,NA,NA,NA,NA,"[]","large",2,"pos",7,20,3,3,4,3,3,1,"45202","38","female","woman","","caucasian","","Yes","2",""
"21","59b2d1e1773f41000148789e","svTrial","survey",28,299854,"0.0-2.0-26.0","65553732575bb29198a888d7","655656d3c0533e422e3f6dca",7,"8637","Ishikawa_middle_sch_3_3.jpg",NA,NA,NA,NA,NA,NA,NA,NA,NA,NA,NA,NA,NA,NA,NA,NA,"[]","small",2,"sch",3,21,3,2,3,3,2,1,"45202","38","female","woman","","caucasian","","Yes","2",""
"22","59b2d1e1773f41000148789e","svTrial","survey",29,311564,"0.0-2.0-27.0","65553732575bb29198a888d7","655656d3c0533e422e3f6dca",7,"11702","Okinawa_small_sch_3_3.jpg",NA,NA,NA,NA,NA,NA,NA,NA,NA,NA,NA,NA,NA,NA,NA,NA,"[]","large",1,"sch",3,22,1,2,3,2,2,1,"45202","38","female","woman","","caucasian","","Yes","2",""
"23","59b2d1e1773f41000148789e","svTrial","survey",30,320257,"0.0-2.0-28.0","65553732575bb29198a888d7","655656d3c0533e422e3f6dca",7,"8686","Hokkaido_large_pos_6_0.jpg",NA,NA,NA,NA,NA,NA,NA,NA,NA,NA,NA,NA,NA,NA,NA,NA,"[]","middle",1,"pos",6,23,3,3,3,3,2,1,"45202","38","female","woman","","caucasian","","Yes","2",""
"24","59b2d1e1773f41000148789e","svTrial","survey",31,329219,"0.0-2.0-29.0","65553732575bb29198a888d7","655656d3c0533e422e3f6dca",7,"8955","Akita_middle_pos_8_0.jpg",NA,NA,NA,NA,NA,NA,NA,NA,NA,NA,NA,NA,NA,NA,NA,NA,"[]","small",2,"sch",8,24,3,2,2,2,2,1,"45202","38","female","woman","","caucasian","","Yes","2",""
"25","59b2d1e1773f41000148789e","svTrial","survey",33,342884,"0.0-2.0-31.0","65553732575bb29198a888d7","655656d3c0533e422e3f6dca",7,"8625","Tokyo_large_sch_3_1.jpg",NA,NA,NA,NA,NA,NA,NA,NA,NA,NA,NA,NA,NA,NA,NA,NA,"[]","large",1,"sch",3,25,4,4,5,4,4,1,"45202","38","female","woman","","caucasian","","Yes","2",""
"26","59b2d1e1773f41000148789e","svTrial","survey",34,354065,"0.0-2.0-32.0","65553732575bb29198a888d7","655656d3c0533e422e3f6dca",7,"11174","Niigata_small_sch_2_2.jpg",NA,NA,NA,NA,NA,NA,NA,NA,NA,NA,NA,NA,NA,NA,NA,NA,"[]","small",2,"sch",2,26,2,2,2,2,2,1,"45202","38","female","woman","","caucasian","","Yes","2",""
"27","59b2d1e1773f41000148789e","svTrial","survey",35,367173,"0.0-2.0-33.0","65553732575bb29198a888d7","655656d3c0533e422e3f6dca",7,"13102","Toyama_large_sch_7_3.jpg",NA,NA,NA,NA,NA,NA,NA,NA,NA,NA,NA,NA,NA,NA,NA,NA,"[]","small",2,"sch",7,27,2,2,2,1,1,1,"45202","38","female","woman","","caucasian","","Yes","2",""
"28","59b2d1e1773f41000148789e","svTrial","survey",36,375694,"0.0-2.0-34.0","65553732575bb29198a888d7","655656d3c0533e422e3f6dca",7,"8514","Hokkaido_middle_pos_5_2.jpg",NA,NA,NA,NA,NA,NA,NA,NA,NA,NA,NA,NA,NA,NA,NA,NA,"[]","middle",1,"pos",5,28,5,5,5,4,4,1,"45202","38","female","woman","","caucasian","","Yes","2",""
"29","59b2d1e1773f41000148789e","svTrial","survey",37,385602,"0.0-2.0-35.0","65553732575bb29198a888d7","655656d3c0533e422e3f6dca",7,"9903","Tokyo_large_sch_6_0.jpg",NA,NA,NA,NA,NA,NA,NA,NA,NA,NA,NA,NA,NA,NA,NA,NA,"[]","large",1,"sch",6,29,1,1,2,1,1,1,"45202","38","female","woman","","caucasian","","Yes","2",""
"30","59b2d1e1773f41000148789e","svTrial","survey",39,399544,"0.0-2.0-37.0","65553732575bb29198a888d7","655656d3c0533e422e3f6dca",7,"10979","Niigata_middle_sch_1_1.jpg",NA,NA,NA,NA,NA,NA,NA,NA,NA,NA,NA,NA,NA,NA,NA,NA,"[]","large",2,"sch",1,30,4,4,4,3,3,1,"45202","38","female","woman","","caucasian","","Yes","2",""
"31","59b2d1e1773f41000148789e","svTrial","survey",40,409078,"0.0-2.0-38.0","65553732575bb29198a888d7","655656d3c0533e422e3f6dca",7,"9528","Okinawa_large_pos_7_1.jpg",NA,NA,NA,NA,NA,NA,NA,NA,NA,NA,NA,NA,NA,NA,NA,NA,"[]","large",1,"sch",7,31,4,5,5,4,5,1,"45202","38","female","woman","","caucasian","","Yes","2",""
"32","59b2d1e1773f41000148789e","svTrial","survey",41,416837,"0.0-2.0-39.0","65553732575bb29198a888d7","655656d3c0533e422e3f6dca",7,"7753","Tokyo_large_sch_4_3.jpg",NA,NA,NA,NA,NA,NA,NA,NA,NA,NA,NA,NA,NA,NA,NA,NA,"[]","small",1,"pos",4,32,3,3,5,3,3,1,"45202","38","female","woman","","caucasian","","Yes","2",""
"33","59b2d1e1773f41000148789e","svTrial","survey",42,425964,"0.0-2.0-40.0","65553732575bb29198a888d7","655656d3c0533e422e3f6dca",7,"9119","Toyama_middle_sch_2_3.jpg",NA,NA,NA,NA,NA,NA,NA,NA,NA,NA,NA,NA,NA,NA,NA,NA,"[]","large",2,"pos",2,33,2,2,3,2,2,1,"45202","38","female","woman","","caucasian","","Yes","2",""
"34","59b2d1e1773f41000148789e","svTrial","survey",43,435095,"0.0-2.0-41.0","65553732575bb29198a888d7","655656d3c0533e422e3f6dca",7,"9124","Okinawa_middle_sch_8_3.jpg",NA,NA,NA,NA,NA,NA,NA,NA,NA,NA,NA,NA,NA,NA,NA,NA,"[]","large",1,"sch",8,34,4,4,4,4,3,1,"45202","38","female","woman","","caucasian","","Yes","2",""
"35","59b2d1e1773f41000148789e","svTrial","survey",44,447615,"0.0-2.0-42.0","65553732575bb29198a888d7","655656d3c0533e422e3f6dca",7,"12513","Akita_middle_sch_3_3.jpg",NA,NA,NA,NA,NA,NA,NA,NA,NA,NA,NA,NA,NA,NA,NA,NA,"[]","large",2,"pos",3,35,4,3,4,3,3,1,"45202","38","female","woman","","caucasian","","Yes","2",""
"36","59b2d1e1773f41000148789e","svTrial","survey",45,459130,"0.0-2.0-43.0","65553732575bb29198a888d7","655656d3c0533e422e3f6dca",7,"11508","Niigata_large_pos_7_0.jpg",NA,NA,NA,NA,NA,NA,NA,NA,NA,NA,NA,NA,NA,NA,NA,NA,"[]","middle",2,"sch",7,36,1,1,1,1,1,1,"45202","38","female","woman","","caucasian","","Yes","2",""
"37","59b2d1e1773f41000148789e","svTrial","survey",46,471080,"0.0-2.0-44.0","65553732575bb29198a888d7","655656d3c0533e422e3f6dca",7,"11944","Hokkaido_small_pos_4_1.jpg",NA,NA,NA,NA,NA,NA,NA,NA,NA,NA,NA,NA,NA,NA,NA,NA,"[]","small",1,"pos",4,37,3,3,3,3,2,1,"45202","38","female","woman","","caucasian","","Yes","2",""
"38","59b2d1e1773f41000148789e","svTrial","survey",47,480353,"0.0-2.0-45.0","65553732575bb29198a888d7","655656d3c0533e422e3f6dca",7,"9267","Toyama_large_sch_3_0.jpg",NA,NA,NA,NA,NA,NA,NA,NA,NA,NA,NA,NA,NA,NA,NA,NA,"[]","large",2,"sch",3,38,5,5,5,4,5,1,"45202","38","female","woman","","caucasian","","Yes","2",""
"39","59b2d1e1773f41000148789e","svTrial","survey",48,488285,"0.0-2.0-46.0","65553732575bb29198a888d7","655656d3c0533e422e3f6dca",7,"7923","Niigata_large_sch_6_1.jpg",NA,NA,NA,NA,NA,NA,NA,NA,NA,NA,NA,NA,NA,NA,NA,NA,"[]","small",2,"sch",6,39,3,2,3,3,3,1,"45202","38","female","woman","","caucasian","","Yes","2",""
"40","59b2d1e1773f41000148789e","svTrial","survey",49,497086,"0.0-2.0-47.0","65553732575bb29198a888d7","655656d3c0533e422e3f6dca",7,"8794","Hokkaido_large_sch_7_2.jpg",NA,NA,NA,NA,NA,NA,NA,NA,NA,NA,NA,NA,NA,NA,NA,NA,"[]","large",1,"sch",7,40,1,1,2,1,1,1,"45202","38","female","woman","","caucasian","","Yes","2",""
"41","59b2d1e1773f41000148789e","svTrial","survey",50,508232,"0.0-2.0-48.0","65553732575bb29198a888d7","655656d3c0533e422e3f6dca",7,"11140","Niigata_large_sch_12_1.jpg",NA,NA,NA,NA,NA,NA,NA,NA,NA,NA,NA,NA,NA,NA,NA,NA,"[]","middle",2,"sch",12,41,3,1,1,1,2,1,"45202","38","female","woman","","caucasian","","Yes","2",""
"42","59b2d1e1773f41000148789e","svTrial","survey",51,518368,"0.0-2.0-49.0","65553732575bb29198a888d7","655656d3c0533e422e3f6dca",7,"10129","Akita_middle_pos_4_1.jpg",NA,NA,NA,NA,NA,NA,NA,NA,NA,NA,NA,NA,NA,NA,NA,NA,"[]","large",2,"pos",4,42,4,4,3,3,3,1,"45202","38","female","woman","","caucasian","","Yes","2",""
"43","59b2d1e1773f41000148789e","svTrial","survey",52,528542,"0.0-2.0-50.0","65553732575bb29198a888d7","655656d3c0533e422e3f6dca",7,"10169","Ishikawa_small_pos_2_3.jpg",NA,NA,NA,NA,NA,NA,NA,NA,NA,NA,NA,NA,NA,NA,NA,NA,"[]","middle",2,"pos",2,43,1,2,1,1,1,1,"45202","38","female","woman","","caucasian","","Yes","2",""
"44","59b2d1e1773f41000148789e","svTrial","survey",53,536030,"0.0-2.0-51.0","65553732575bb29198a888d7","655656d3c0533e422e3f6dca",7,"7482","Tokyo_large_pos_10_0.jpg",NA,NA,NA,NA,NA,NA,NA,NA,NA,NA,NA,NA,NA,NA,NA,NA,"[]","large",1,"sch",10,44,5,5,5,5,5,1,"45202","38","female","woman","","caucasian","","Yes","2",""
"45","59b2d1e1773f41000148789e","svTrial","survey",54,541352,"0.0-2.0-52.0","65553732575bb29198a888d7","655656d3c0533e422e3f6dca",7,"5315","Ishikawa_middle_pos_5_1.jpg",NA,NA,NA,NA,NA,NA,NA,NA,NA,NA,NA,NA,NA,NA,NA,NA,"[]","large",2,"sch",5,45,5,5,5,5,5,1,"45202","38","female","woman","","caucasian","","Yes","2",""
"46","59b2d1e1773f41000148789e","svTrial","survey",55,551382,"0.0-2.0-53.0","65553732575bb29198a888d7","655656d3c0533e422e3f6dca",7,"10025","Ishikawa_large_sch_8_2.jpg",NA,NA,NA,NA,NA,NA,NA,NA,NA,NA,NA,NA,NA,NA,NA,NA,"[]","large",2,"pos",8,46,4,5,5,4,5,1,"45202","38","female","woman","","caucasian","","Yes","2",""
"47","59b2d1e1773f41000148789e","svTrial","survey",56,560578,"0.0-2.0-54.0","65553732575bb29198a888d7","655656d3c0533e422e3f6dca",7,"9189","Tokyo_middle_sch_1_1.jpg",NA,NA,NA,NA,NA,NA,NA,NA,NA,NA,NA,NA,NA,NA,NA,NA,"[]","large",1,"sch",1,47,5,5,4,4,5,1,"45202","38","female","woman","","caucasian","","Yes","2",""
"48","59b2d1e1773f41000148789e","svTrial","survey",57,572405,"0.0-2.0-55.0","65553732575bb29198a888d7","655656d3c0533e422e3f6dca",7,"11821","Okinawa_middle_pos_5_0.jpg",NA,NA,NA,NA,NA,NA,NA,NA,NA,NA,NA,NA,NA,NA,NA,NA,"[]","large",1,"sch",5,48,5,5,4,4,4,1,"45202","38","female","woman","","caucasian","","Yes","2",""
