"","subject_id","task","trial_type","trial_index","time_elapsed","internal_node_id","study_id","session_id","group","rt","stimulus","width","height","webaudio","browser","browser_version","mobile","os","fullscreen","vsync_rate","webcam","microphone","success","timeout","failed_images","failed_audio","failed_video","accuracy","size","culture","loct","number","document.id","ambiguous","objects","invisible","chaos","complex","passedChecks","zipcode","age","sex","gender","gender-self-describe","ethnicity","ethnicity-self-describe","outsideUS","outsideUS_years","surveyComments"
"1","5a6b998a3fb6420001c2f97a","svTrial","survey",8,138920,"0.0-2.0-6.0","65553732575bb29198a888d7","65565c5caa188e816c973eda",7,"53910","Akita_middle_pos_4_3.jpg",NA,NA,NA,NA,NA,NA,NA,NA,NA,NA,NA,NA,NA,NA,NA,NA,"[]","large",2,"pos",4,1,4,3,2,4,3,1,"64119","38","male","man","","prefer-not-to-say","","No","",""
"2","5a6b998a3fb6420001c2f97a","svTrial","survey",9,183079,"0.0-2.0-7.0","65553732575bb29198a888d7","65565c5caa188e816c973eda",7,"44141","Kanagawa_middle_sch_4_3.jpg",NA,NA,NA,NA,NA,NA,NA,NA,NA,NA,NA,NA,NA,NA,NA,NA,"[]","middle",1,"sch",4,2,3,2,1,2,2,1,"64119","38","male","man","","prefer-not-to-say","","No","",""
"3","5a6b998a3fb6420001c2f97a","svTrial","survey",10,219137,"0.0-2.0-8.0","65553732575bb29198a888d7","65565c5caa188e816c973eda",7,"36045","Ishikawa_small_pos_1_2.jpg",NA,NA,NA,NA,NA,NA,NA,NA,NA,NA,NA,NA,NA,NA,NA,NA,"[]","small",2,"pos",1,3,2,2,2,1,2,1,"64119","38","male","man","","prefer-not-to-say","","No","",""
"4","5a6b998a3fb6420001c2f97a","svTrial","survey",11,243302,"0.0-2.0-9.0","65553732575bb29198a888d7","65565c5caa188e816c973eda",7,"24153","Kanagawa_large_sch_1_2.jpg",NA,NA,NA,NA,NA,NA,NA,NA,NA,NA,NA,NA,NA,NA,NA,NA,"[]","middle",1,"sch",1,4,1,1,1,2,1,1,"64119","38","male","man","","prefer-not-to-say","","No","",""
"5","5a6b998a3fb6420001c2f97a","svTrial","survey",12,277778,"0.0-2.0-10.0","65553732575bb29198a888d7","65565c5caa188e816c973eda",7,"34463","Tokyo_large_pos_10_3.jpg",NA,NA,NA,NA,NA,NA,NA,NA,NA,NA,NA,NA,NA,NA,NA,NA,"[]","large",1,"sch",10,5,4,2,4,5,4,1,"64119","38","male","man","","prefer-not-to-say","","No","",""
"6","5a6b998a3fb6420001c2f97a","svTrial","survey",13,300450,"0.0-2.0-11.0","65553732575bb29198a888d7","65565c5caa188e816c973eda",7,"22660","Tokyo_middle_pos_4_0.jpg",NA,NA,NA,NA,NA,NA,NA,NA,NA,NA,NA,NA,NA,NA,NA,NA,"[]","small",1,"pos",4,6,4,3,4,3,3,1,"64119","38","male","man","","prefer-not-to-say","","No","",""
"7","5a6b998a3fb6420001c2f97a","svTrial","survey",14,342223,"0.0-2.0-12.0","65553732575bb29198a888d7","65565c5caa188e816c973eda",7,"41762","Hokkaido_middle_pos_5_3.jpg",NA,NA,NA,NA,NA,NA,NA,NA,NA,NA,NA,NA,NA,NA,NA,NA,"[]","middle",1,"pos",5,7,2,2,1,2,1,1,"64119","38","male","man","","prefer-not-to-say","","No","",""
"8","5a6b998a3fb6420001c2f97a","svTrial","survey",15,362748,"0.0-2.0-13.0","65553732575bb29198a888d7","65565c5caa188e816c973eda",7,"20514","Niigata_small_sch_2_1.jpg",NA,NA,NA,NA,NA,NA,NA,NA,NA,NA,NA,NA,NA,NA,NA,NA,"[]","small",2,"sch",2,8,1,1,1,1,1,1,"64119","38","male","man","","prefer-not-to-say","","No","",""
"9","5a6b998a3fb6420001c2f97a","svTrial","survey",16,376668,"0.0-2.0-14.0","65553732575bb29198a888d7","65565c5caa188e816c973eda",7,"13910","Niigata_large_sch_6_0.jpg",NA,NA,NA,NA,NA,NA,NA,NA,NA,NA,NA,NA,NA,NA,NA,NA,"[]","small",2,"sch",6,9,1,1,1,1,1,1,"64119","38","male","man","","prefer-not-to-say","","No","",""
"10","5a6b998a3fb6420001c2f97a","svTrial","survey",17,419338,"0.0-2.0-15.0","65553732575bb29198a888d7","65565c5caa188e816c973eda",7,"42660","Hokkaido_small_sch_1_1.jpg",NA,NA,NA,NA,NA,NA,NA,NA,NA,NA,NA,NA,NA,NA,NA,NA,"[]","small",1,"pos",1,10,5,3,4,5,4,1,"64119","38","male","man","","prefer-not-to-say","","No","",""
"11","5a6b998a3fb6420001c2f97a","svTrial","survey",18,511345,"0.0-2.0-16.0","65553732575bb29198a888d7","65565c5caa188e816c973eda",7,"91994","Hokkaido_large_sch_7_1.jpg",NA,NA,NA,NA,NA,NA,NA,NA,NA,NA,NA,NA,NA,NA,NA,NA,"[]","large",1,"sch",7,11,4,3,4,3,3,1,"64119","38","male","man","","prefer-not-to-say","","No","",""
"12","5a6b998a3fb6420001c2f97a","svTrial","survey",19,537215,"0.0-2.0-17.0","65553732575bb29198a888d7","65565c5caa188e816c973eda",7,"25860","Ishikawa_middle_sch_6_0.jpg",NA,NA,NA,NA,NA,NA,NA,NA,NA,NA,NA,NA,NA,NA,NA,NA,"[]","large",2,"sch",6,12,4,2,4,3,2,1,"64119","38","male","man","","prefer-not-to-say","","No","",""
"13","5a6b998a3fb6420001c2f97a","svTrial","survey",20,559863,"0.0-2.0-18.0","65553732575bb29198a888d7","65565c5caa188e816c973eda",7,"22637","Ishikawa_small_pos_2_3.jpg",NA,NA,NA,NA,NA,NA,NA,NA,NA,NA,NA,NA,NA,NA,NA,NA,"[]","middle",2,"pos",2,13,1,1,1,1,1,1,"64119","38","male","man","","prefer-not-to-say","","No","",""
"14","5a6b998a3fb6420001c2f97a","svTrial","survey",21,580129,"0.0-2.0-19.0","65553732575bb29198a888d7","65565c5caa188e816c973eda",7,"20256","Akita_middle_pos_6_3.jpg",NA,NA,NA,NA,NA,NA,NA,NA,NA,NA,NA,NA,NA,NA,NA,NA,"[]","large",2,"sch",6,14,1,1,3,2,2,1,"64119","38","male","man","","prefer-not-to-say","","No","",""
"15","5a6b998a3fb6420001c2f97a","svTrial","survey",22,627979,"0.0-2.0-20.0","65553732575bb29198a888d7","65565c5caa188e816c973eda",7,"47838","Akita_middle_sch_3_0.jpg",NA,NA,NA,NA,NA,NA,NA,NA,NA,NA,NA,NA,NA,NA,NA,NA,"[]","large",2,"pos",3,15,3,2,2,3,3,1,"64119","38","male","man","","prefer-not-to-say","","No","",""
"16","5a6b998a3fb6420001c2f97a","svTrial","survey",23,646039,"0.0-2.0-21.0","65553732575bb29198a888d7","65565c5caa188e816c973eda",7,"18047","Niigata_middle_sch_3_3.jpg",NA,NA,NA,NA,NA,NA,NA,NA,NA,NA,NA,NA,NA,NA,NA,NA,"[]","middle",2,"pos",3,16,4,4,4,4,3,1,"64119","38","male","man","","prefer-not-to-say","","No","",""
"17","5a6b998a3fb6420001c2f97a","svTrial","survey",24,671957,"0.0-2.0-22.0","65553732575bb29198a888d7","65565c5caa188e816c973eda",7,"25907","Niigata_middle_sch_1_0.jpg",NA,NA,NA,NA,NA,NA,NA,NA,NA,NA,NA,NA,NA,NA,NA,NA,"[]","large",2,"sch",1,17,5,4,3,4,4,1,"64119","38","male","man","","prefer-not-to-say","","No","",""
"18","5a6b998a3fb6420001c2f97a","svTrial","survey",25,698920,"0.0-2.0-23.0","65553732575bb29198a888d7","65565c5caa188e816c973eda",7,"26953","Toyama_large_sch_3_2.jpg",NA,NA,NA,NA,NA,NA,NA,NA,NA,NA,NA,NA,NA,NA,NA,NA,"[]","large",2,"sch",3,18,4,5,3,4,4,1,"64119","38","male","man","","prefer-not-to-say","","No","",""
"19","5a6b998a3fb6420001c2f97a","svTrial","survey",26,726670,"0.0-2.0-24.0","65553732575bb29198a888d7","65565c5caa188e816c973eda",7,"27739","Hokkaido_middle_sch_8_2.jpg",NA,NA,NA,NA,NA,NA,NA,NA,NA,NA,NA,NA,NA,NA,NA,NA,"[]","large",1,"pos",8,19,1,2,2,3,2,1,"64119","38","male","man","","prefer-not-to-say","","No","",""
"20","5a6b998a3fb6420001c2f97a","svTrial","survey",27,749475,"0.0-2.0-25.0","65553732575bb29198a888d7","65565c5caa188e816c973eda",7,"22794","Tokyo_middle_sch_1_1.jpg",NA,NA,NA,NA,NA,NA,NA,NA,NA,NA,NA,NA,NA,NA,NA,NA,"[]","large",1,"sch",1,20,4,3,3,3,3,1,"64119","38","male","man","","prefer-not-to-say","","No","",""
"21","5a6b998a3fb6420001c2f97a","svTrial","survey",28,773089,"0.0-2.0-26.0","65553732575bb29198a888d7","65565c5caa188e816c973eda",7,"23603","Hokkaido_large_sch_9_0.jpg",NA,NA,NA,NA,NA,NA,NA,NA,NA,NA,NA,NA,NA,NA,NA,NA,"[]","large",1,"sch",9,21,5,5,3,5,5,1,"64119","38","male","man","","prefer-not-to-say","","No","",""
"22","5a6b998a3fb6420001c2f97a","svTrial","survey",29,805547,"0.0-2.0-27.0","65553732575bb29198a888d7","65565c5caa188e816c973eda",7,"32448","Ishikawa_middle_pos_5_3.jpg",NA,NA,NA,NA,NA,NA,NA,NA,NA,NA,NA,NA,NA,NA,NA,NA,"[]","large",2,"sch",5,22,3,3,3,3,3,1,"64119","38","male","man","","prefer-not-to-say","","No","",""
"23","5a6b998a3fb6420001c2f97a","svTrial","survey",30,828565,"0.0-2.0-28.0","65553732575bb29198a888d7","65565c5caa188e816c973eda",7,"23003","Hokkaido_large_pos_6_3.jpg",NA,NA,NA,NA,NA,NA,NA,NA,NA,NA,NA,NA,NA,NA,NA,NA,"[]","middle",1,"pos",6,23,1,2,2,2,1,1,"64119","38","male","man","","prefer-not-to-say","","No","",""
"24","5a6b998a3fb6420001c2f97a","svTrial","survey",31,854564,"0.0-2.0-29.0","65553732575bb29198a888d7","65565c5caa188e816c973eda",7,"25988","Akita_small_pos_1_0.jpg",NA,NA,NA,NA,NA,NA,NA,NA,NA,NA,NA,NA,NA,NA,NA,NA,"[]","middle",2,"pos",1,24,5,4,4,4,4,1,"64119","38","male","man","","prefer-not-to-say","","No","",""
"25","5a6b998a3fb6420001c2f97a","svTrial","survey",33,1023902,"0.0-2.0-31.0","65553732575bb29198a888d7","65565c5caa188e816c973eda",7,"153568","Tokyo_large_pos_11_3.jpg",NA,NA,NA,NA,NA,NA,NA,NA,NA,NA,NA,NA,NA,NA,NA,NA,"[]","small",1,"sch",11,25,4,3,3,3,3,1,"64119","38","male","man","","prefer-not-to-say","","No","",""
"26","5a6b998a3fb6420001c2f97a","svTrial","survey",34,1037389,"0.0-2.0-32.0","65553732575bb29198a888d7","65565c5caa188e816c973eda",7,"13474","Tokyo_large_sch_4_1.jpg",NA,NA,NA,NA,NA,NA,NA,NA,NA,NA,NA,NA,NA,NA,NA,NA,"[]","small",1,"pos",4,26,5,5,4,5,5,1,"64119","38","male","man","","prefer-not-to-say","","No","",""
"27","5a6b998a3fb6420001c2f97a","svTrial","survey",35,1057618,"0.0-2.0-33.0","65553732575bb29198a888d7","65565c5caa188e816c973eda",7,"20216","Okinawa_middle_sch_6_3.jpg",NA,NA,NA,NA,NA,NA,NA,NA,NA,NA,NA,NA,NA,NA,NA,NA,"[]","small",1,"sch",6,27,4,4,3,4,5,1,"64119","38","male","man","","prefer-not-to-say","","No","",""
"28","5a6b998a3fb6420001c2f97a","svTrial","survey",36,1076897,"0.0-2.0-34.0","65553732575bb29198a888d7","65565c5caa188e816c973eda",7,"19267","Ishikawa_middle_sch_3_0.jpg",NA,NA,NA,NA,NA,NA,NA,NA,NA,NA,NA,NA,NA,NA,NA,NA,"[]","small",2,"sch",3,28,3,3,4,4,2,1,"64119","38","male","man","","prefer-not-to-say","","No","",""
"29","5a6b998a3fb6420001c2f97a","svTrial","survey",37,1094549,"0.0-2.0-35.0","65553732575bb29198a888d7","65565c5caa188e816c973eda",7,"17642","Niigata_small_pos_4_1.jpg",NA,NA,NA,NA,NA,NA,NA,NA,NA,NA,NA,NA,NA,NA,NA,NA,"[]","middle",2,"sch",4,29,3,2,2,2,2,1,"64119","38","male","man","","prefer-not-to-say","","No","",""
"30","5a6b998a3fb6420001c2f97a","svTrial","survey",38,1113386,"0.0-2.0-36.0","65553732575bb29198a888d7","65565c5caa188e816c973eda",7,"18826","Akita_middle_pos_8_2.jpg",NA,NA,NA,NA,NA,NA,NA,NA,NA,NA,NA,NA,NA,NA,NA,NA,"[]","small",2,"sch",8,30,4,2,3,3,2,1,"64119","38","male","man","","prefer-not-to-say","","No","",""
"31","5a6b998a3fb6420001c2f97a","svTrial","survey",39,1140421,"0.0-2.0-37.0","65553732575bb29198a888d7","65565c5caa188e816c973eda",7,"27025","Hokkaido_large_pos_8_2.jpg",NA,NA,NA,NA,NA,NA,NA,NA,NA,NA,NA,NA,NA,NA,NA,NA,"[]","small",1,"sch",8,31,2,4,3,2,3,1,"64119","38","male","man","","prefer-not-to-say","","No","",""
"32","5a6b998a3fb6420001c2f97a","svTrial","survey",40,1156902,"0.0-2.0-38.0","65553732575bb29198a888d7","65565c5caa188e816c973eda",7,"16471","Hokkaido_small_pos_4_2.jpg",NA,NA,NA,NA,NA,NA,NA,NA,NA,NA,NA,NA,NA,NA,NA,NA,"[]","small",1,"pos",4,32,5,3,4,4,4,1,"64119","38","male","man","","prefer-not-to-say","","No","",""
"33","5a6b998a3fb6420001c2f97a","svTrial","survey",41,1180218,"0.0-2.0-39.0","65553732575bb29198a888d7","65565c5caa188e816c973eda",7,"23304","Toyama_large_sch_7_2.jpg",NA,NA,NA,NA,NA,NA,NA,NA,NA,NA,NA,NA,NA,NA,NA,NA,"[]","small",2,"sch",7,33,2,3,4,2,2,1,"64119","38","male","man","","prefer-not-to-say","","No","",""
"34","5a6b998a3fb6420001c2f97a","svTrial","survey",42,1200020,"0.0-2.0-40.0","65553732575bb29198a888d7","65565c5caa188e816c973eda",7,"19791","Akita_small_pos_3_3.jpg",NA,NA,NA,NA,NA,NA,NA,NA,NA,NA,NA,NA,NA,NA,NA,NA,"[]","small",2,"pos",3,34,5,2,4,4,3,1,"64119","38","male","man","","prefer-not-to-say","","No","",""
"35","5a6b998a3fb6420001c2f97a","svTrial","survey",43,1215551,"0.0-2.0-41.0","65553732575bb29198a888d7","65565c5caa188e816c973eda",7,"15520","Ishikawa_large_sch_8_1.jpg",NA,NA,NA,NA,NA,NA,NA,NA,NA,NA,NA,NA,NA,NA,NA,NA,"[]","large",2,"pos",8,35,2,2,3,3,2,1,"64119","38","male","man","","prefer-not-to-say","","No","",""
"36","5a6b998a3fb6420001c2f97a","svTrial","survey",44,1234615,"0.0-2.0-42.0","65553732575bb29198a888d7","65565c5caa188e816c973eda",7,"19052","Okinawa_middle_sch_8_1.jpg",NA,NA,NA,NA,NA,NA,NA,NA,NA,NA,NA,NA,NA,NA,NA,NA,"[]","large",1,"sch",8,36,4,2,3,3,4,1,"64119","38","male","man","","prefer-not-to-say","","No","",""
"37","5a6b998a3fb6420001c2f97a","svTrial","survey",45,1272023,"0.0-2.0-43.0","65553732575bb29198a888d7","65565c5caa188e816c973eda",7,"37396","Kanagawa_large_pos_8_2.jpg",NA,NA,NA,NA,NA,NA,NA,NA,NA,NA,NA,NA,NA,NA,NA,NA,"[]","large",1,"pos",8,37,2,2,2,3,3,1,"64119","38","male","man","","prefer-not-to-say","","No","",""
"38","5a6b998a3fb6420001c2f97a","svTrial","survey",46,1288507,"0.0-2.0-44.0","65553732575bb29198a888d7","65565c5caa188e816c973eda",7,"16473","Tokyo_large_sch_3_3.jpg",NA,NA,NA,NA,NA,NA,NA,NA,NA,NA,NA,NA,NA,NA,NA,NA,"[]","large",1,"sch",3,38,4,3,4,4,4,1,"64119","38","male","man","","prefer-not-to-say","","No","",""
"39","5a6b998a3fb6420001c2f97a","svTrial","survey",47,1306753,"0.0-2.0-45.0","65553732575bb29198a888d7","65565c5caa188e816c973eda",7,"18236","Tokyo_large_sch_6_3.jpg",NA,NA,NA,NA,NA,NA,NA,NA,NA,NA,NA,NA,NA,NA,NA,NA,"[]","large",1,"sch",6,39,4,3,4,4,4,1,"64119","38","male","man","","prefer-not-to-say","","No","",""
"40","5a6b998a3fb6420001c2f97a","svTrial","survey",49,1336502,"0.0-2.0-47.0","65553732575bb29198a888d7","65565c5caa188e816c973eda",7,"21177","Tokyo_middle_sch_4_3.jpg",NA,NA,NA,NA,NA,NA,NA,NA,NA,NA,NA,NA,NA,NA,NA,NA,"[]","large",1,"sch",4,40,4,4,3,4,4,1,"64119","38","male","man","","prefer-not-to-say","","No","",""
"41","5a6b998a3fb6420001c2f97a","svTrial","survey",50,1350218,"0.0-2.0-48.0","65553732575bb29198a888d7","65565c5caa188e816c973eda",7,"13703","Okinawa_small_sch_3_3.jpg",NA,NA,NA,NA,NA,NA,NA,NA,NA,NA,NA,NA,NA,NA,NA,NA,"[]","large",1,"sch",3,41,4,3,3,4,4,1,"64119","38","male","man","","prefer-not-to-say","","No","",""
"42","5a6b998a3fb6420001c2f97a","svTrial","survey",51,1369833,"0.0-2.0-49.0","65553732575bb29198a888d7","65565c5caa188e816c973eda",7,"19604","Toyama_middle_sch_2_0.jpg",NA,NA,NA,NA,NA,NA,NA,NA,NA,NA,NA,NA,NA,NA,NA,NA,"[]","large",2,"pos",2,42,2,2,3,3,3,1,"64119","38","male","man","","prefer-not-to-say","","No","",""
"43","5a6b998a3fb6420001c2f97a","svTrial","survey",52,1393548,"0.0-2.0-50.0","65553732575bb29198a888d7","65565c5caa188e816c973eda",7,"23704","Niigata_large_pos_7_1.jpg",NA,NA,NA,NA,NA,NA,NA,NA,NA,NA,NA,NA,NA,NA,NA,NA,"[]","middle",2,"sch",7,43,3,3,4,4,3,1,"64119","38","male","man","","prefer-not-to-say","","No","",""
"44","5a6b998a3fb6420001c2f97a","svTrial","survey",53,1414147,"0.0-2.0-51.0","65553732575bb29198a888d7","65565c5caa188e816c973eda",7,"20587","Niigata_large_sch_12_3.jpg",NA,NA,NA,NA,NA,NA,NA,NA,NA,NA,NA,NA,NA,NA,NA,NA,"[]","middle",2,"sch",12,44,5,1,3,2,2,1,"64119","38","male","man","","prefer-not-to-say","","No","",""
"45","5a6b998a3fb6420001c2f97a","svTrial","survey",54,1441688,"0.0-2.0-52.0","65553732575bb29198a888d7","65565c5caa188e816c973eda",7,"27530","Ishikawa_middle_sch_7_0.jpg",NA,NA,NA,NA,NA,NA,NA,NA,NA,NA,NA,NA,NA,NA,NA,NA,"[]","large",2,"pos",7,45,4,3,5,4,3,1,"64119","38","male","man","","prefer-not-to-say","","No","",""
"46","5a6b998a3fb6420001c2f97a","svTrial","survey",55,1462623,"0.0-2.0-53.0","65553732575bb29198a888d7","65565c5caa188e816c973eda",7,"20925","Okinawa_large_pos_7_0.jpg",NA,NA,NA,NA,NA,NA,NA,NA,NA,NA,NA,NA,NA,NA,NA,NA,"[]","large",1,"sch",7,46,3,3,3,3,3,1,"64119","38","male","man","","prefer-not-to-say","","No","",""
"47","5a6b998a3fb6420001c2f97a","svTrial","survey",56,1484193,"0.0-2.0-54.0","65553732575bb29198a888d7","65565c5caa188e816c973eda",7,"21558","Okinawa_middle_pos_5_1.jpg",NA,NA,NA,NA,NA,NA,NA,NA,NA,NA,NA,NA,NA,NA,NA,NA,"[]","large",1,"sch",5,47,4,3,3,3,3,1,"64119","38","male","man","","prefer-not-to-say","","No","",""
"48","5a6b998a3fb6420001c2f97a","svTrial","survey",57,1501646,"0.0-2.0-55.0","65553732575bb29198a888d7","65565c5caa188e816c973eda",7,"17442","Ishikawa_large_sch_7_2.jpg",NA,NA,NA,NA,NA,NA,NA,NA,NA,NA,NA,NA,NA,NA,NA,NA,"[]","large",2,"pos",7,48,2,3,2,2,2,1,"64119","38","male","man","","prefer-not-to-say","","No","",""
