"","subject_id","task","trial_type","trial_index","time_elapsed","internal_node_id","study_id","session_id","group","rt","stimulus","width","height","webaudio","browser","browser_version","mobile","os","fullscreen","vsync_rate","webcam","microphone","success","timeout","failed_images","failed_audio","failed_video","accuracy","size","culture","loct","number","document.id","ambiguous","objects","invisible","chaos","complex","passedChecks","zipcode","age","sex","gender","gender-self-describe","ethnicity","ethnicity-self-describe","outsideUS","outsideUS_years","surveyComments"
"1","5bbc18010cb04c00015025ce","svTrial","survey",8,98383,"0.0-2.0-6.0","65553732575bb29198a888d7","65565b96ab495319978d7ba8",8,"19940","Hokkaido_large_pos_2_0.jpg",NA,NA,NA,NA,NA,NA,NA,NA,NA,NA,NA,NA,NA,NA,NA,NA,"[]","small",1,"sch",2,1,1,1,5,1,1,1,"80908","35","female","woman","","caucasian","","No","",""
"2","5bbc18010cb04c00015025ce","svTrial","survey",9,119942,"0.0-2.0-7.0","65553732575bb29198a888d7","65565b96ab495319978d7ba8",8,"21547","Toyama_middle_pos_6_0.jpg",NA,NA,NA,NA,NA,NA,NA,NA,NA,NA,NA,NA,NA,NA,NA,NA,"[]","small",2,"pos",6,2,2,4,4,2,3,1,"80908","35","female","woman","","caucasian","","No","",""
"3","5bbc18010cb04c00015025ce","svTrial","survey",10,206752,"0.0-2.0-8.0","65553732575bb29198a888d7","65565b96ab495319978d7ba8",8,"86800","Kanagawa_small_pos_4_0.jpg",NA,NA,NA,NA,NA,NA,NA,NA,NA,NA,NA,NA,NA,NA,NA,NA,"[]","middle",1,"pos",4,3,2,2,4,4,3,1,"80908","35","female","woman","","caucasian","","No","",""
"4","5bbc18010cb04c00015025ce","svTrial","survey",11,259758,"0.0-2.0-9.0","65553732575bb29198a888d7","65565b96ab495319978d7ba8",8,"52996","Hokkaido_large_pos_7_1.jpg",NA,NA,NA,NA,NA,NA,NA,NA,NA,NA,NA,NA,NA,NA,NA,NA,"[]","middle",1,"sch",7,4,2,4,2,4,2,1,"80908","35","female","woman","","caucasian","","No","",""
"5","5bbc18010cb04c00015025ce","svTrial","survey",12,289062,"0.0-2.0-10.0","65553732575bb29198a888d7","65565b96ab495319978d7ba8",8,"29295","Niigata_large_pos_2_0.jpg",NA,NA,NA,NA,NA,NA,NA,NA,NA,NA,NA,NA,NA,NA,NA,NA,"[]","middle",2,"pos",2,5,3,3,3,3,3,1,"80908","35","female","woman","","caucasian","","No","",""
"6","5bbc18010cb04c00015025ce","svTrial","survey",13,328582,"0.0-2.0-11.0","65553732575bb29198a888d7","65565b96ab495319978d7ba8",8,"39508","Kanagawa_large_pos_11_0.jpg",NA,NA,NA,NA,NA,NA,NA,NA,NA,NA,NA,NA,NA,NA,NA,NA,"[]","large",1,"pos",11,6,2,2,4,2,2,1,"80908","35","female","woman","","caucasian","","No","",""
"7","5bbc18010cb04c00015025ce","svTrial","survey",14,347660,"0.0-2.0-12.0","65553732575bb29198a888d7","65565b96ab495319978d7ba8",8,"19068","Toyama_small_pos_1_2.jpg",NA,NA,NA,NA,NA,NA,NA,NA,NA,NA,NA,NA,NA,NA,NA,NA,"[]","small",2,"pos",1,7,2,4,5,2,1,1,"80908","35","female","woman","","caucasian","","No","",""
"8","5bbc18010cb04c00015025ce","svTrial","survey",15,375913,"0.0-2.0-13.0","65553732575bb29198a888d7","65565b96ab495319978d7ba8",8,"28243","Tokyo_large_sch_1_1.jpg",NA,NA,NA,NA,NA,NA,NA,NA,NA,NA,NA,NA,NA,NA,NA,NA,"[]","middle",1,"pos",1,8,3,4,2,2,2,1,"80908","35","female","woman","","caucasian","","No","",""
"9","5bbc18010cb04c00015025ce","svTrial","survey",16,390988,"0.0-2.0-14.0","65553732575bb29198a888d7","65565b96ab495319978d7ba8",8,"15065","Ishikawa_small_sch_2_1.jpg",NA,NA,NA,NA,NA,NA,NA,NA,NA,NA,NA,NA,NA,NA,NA,NA,"[]","large",2,"sch",2,9,1,2,1,1,1,1,"80908","35","female","woman","","caucasian","","No","",""
"10","5bbc18010cb04c00015025ce","svTrial","survey",17,407419,"0.0-2.0-15.0","65553732575bb29198a888d7","65565b96ab495319978d7ba8",8,"16426","Ishikawa_large_pos_9_0.jpg",NA,NA,NA,NA,NA,NA,NA,NA,NA,NA,NA,NA,NA,NA,NA,NA,"[]","large",2,"pos",9,10,2,3,2,2,2,1,"80908","35","female","woman","","caucasian","","No","",""
"11","5bbc18010cb04c00015025ce","svTrial","survey",18,427082,"0.0-2.0-16.0","65553732575bb29198a888d7","65565b96ab495319978d7ba8",8,"19659","Ishikawa_large_pos_12_0.jpg",NA,NA,NA,NA,NA,NA,NA,NA,NA,NA,NA,NA,NA,NA,NA,NA,"[]","small",2,"sch",12,11,2,2,1,1,1,1,"80908","35","female","woman","","caucasian","","No","",""
"12","5bbc18010cb04c00015025ce","svTrial","survey",19,520947,"0.0-2.0-17.0","65553732575bb29198a888d7","65565b96ab495319978d7ba8",8,"93857","Hokkaido_large_sch_10_0.jpg",NA,NA,NA,NA,NA,NA,NA,NA,NA,NA,NA,NA,NA,NA,NA,NA,"[]","large",1,"pos",10,12,1,2,1,1,1,1,"80908","35","female","woman","","caucasian","","No","",""
"13","5bbc18010cb04c00015025ce","svTrial","survey",20,540356,"0.0-2.0-18.0","65553732575bb29198a888d7","65565b96ab495319978d7ba8",8,"19399","Okinawa_small_pos_1_0.jpg",NA,NA,NA,NA,NA,NA,NA,NA,NA,NA,NA,NA,NA,NA,NA,NA,"[]","large",1,"sch",1,13,2,4,2,2,2,1,"80908","35","female","woman","","caucasian","","No","",""
"14","5bbc18010cb04c00015025ce","svTrial","survey",21,559043,"0.0-2.0-19.0","65553732575bb29198a888d7","65565b96ab495319978d7ba8",8,"18678","Toyama_middle_sch_4_2.jpg",NA,NA,NA,NA,NA,NA,NA,NA,NA,NA,NA,NA,NA,NA,NA,NA,"[]","middle",2,"sch",4,14,4,4,4,3,4,1,"80908","35","female","woman","","caucasian","","No","",""
"15","5bbc18010cb04c00015025ce","svTrial","survey",22,578624,"0.0-2.0-20.0","65553732575bb29198a888d7","65565b96ab495319978d7ba8",8,"19571","Tokyo_large_sch_5_0.jpg",NA,NA,NA,NA,NA,NA,NA,NA,NA,NA,NA,NA,NA,NA,NA,NA,"[]","large",1,"sch",5,15,4,4,4,4,4,1,"80908","35","female","woman","","caucasian","","No","",""
"16","5bbc18010cb04c00015025ce","svTrial","survey",23,650488,"0.0-2.0-21.0","65553732575bb29198a888d7","65565b96ab495319978d7ba8",8,"71857","Kanagawa_large_pos_2_2.jpg",NA,NA,NA,NA,NA,NA,NA,NA,NA,NA,NA,NA,NA,NA,NA,NA,"[]","small",1,"pos",2,16,2,4,2,2,2,1,"80908","35","female","woman","","caucasian","","No","",""
"17","5bbc18010cb04c00015025ce","svTrial","survey",24,665042,"0.0-2.0-22.0","65553732575bb29198a888d7","65565b96ab495319978d7ba8",8,"14542","Hokkaido_middle_pos_7_3.jpg",NA,NA,NA,NA,NA,NA,NA,NA,NA,NA,NA,NA,NA,NA,NA,NA,"[]","small",1,"sch",7,17,3,4,4,4,3,1,"80908","35","female","woman","","caucasian","","No","",""
"18","5bbc18010cb04c00015025ce","svTrial","survey",25,687582,"0.0-2.0-23.0","65553732575bb29198a888d7","65565b96ab495319978d7ba8",8,"22530","Okinawa_large_sch_10_0.jpg",NA,NA,NA,NA,NA,NA,NA,NA,NA,NA,NA,NA,NA,NA,NA,NA,"[]","large",1,"sch",10,18,3,4,4,4,3,1,"80908","35","female","woman","","caucasian","","No","",""
"19","5bbc18010cb04c00015025ce","svTrial","survey",26,700824,"0.0-2.0-24.0","65553732575bb29198a888d7","65565b96ab495319978d7ba8",8,"13233","Niigata_small_sch_3_3.jpg",NA,NA,NA,NA,NA,NA,NA,NA,NA,NA,NA,NA,NA,NA,NA,NA,"[]","middle",2,"sch",3,19,2,1,1,2,1,1,"80908","35","female","woman","","caucasian","","No","",""
"20","5bbc18010cb04c00015025ce","svTrial","survey",27,721391,"0.0-2.0-25.0","65553732575bb29198a888d7","65565b96ab495319978d7ba8",8,"20555","Akita_small_sch_2_3.jpg",NA,NA,NA,NA,NA,NA,NA,NA,NA,NA,NA,NA,NA,NA,NA,NA,"[]","small",2,"pos",2,20,2,2,2,2,2,1,"80908","35","female","woman","","caucasian","","No","",""
"21","5bbc18010cb04c00015025ce","svTrial","survey",28,751638,"0.0-2.0-26.0","65553732575bb29198a888d7","65565b96ab495319978d7ba8",8,"30235","Okinawa_middle_sch_5_3.jpg",NA,NA,NA,NA,NA,NA,NA,NA,NA,NA,NA,NA,NA,NA,NA,NA,"[]","small",1,"sch",5,21,2,3,4,3,4,1,"80908","35","female","woman","","caucasian","","No","",""
"22","5bbc18010cb04c00015025ce","svTrial","survey",29,760461,"0.0-2.0-27.0","65553732575bb29198a888d7","65565b96ab495319978d7ba8",8,"8813","Kanagawa_middle_sch_7_2.jpg",NA,NA,NA,NA,NA,NA,NA,NA,NA,NA,NA,NA,NA,NA,NA,NA,"[]","large",1,"pos",7,22,1,1,1,1,1,1,"80908","35","female","woman","","caucasian","","No","",""
"23","5bbc18010cb04c00015025ce","svTrial","survey",30,795250,"0.0-2.0-28.0","65553732575bb29198a888d7","65565b96ab495319978d7ba8",8,"34779","Kanagawa_large_pos_6_3.jpg",NA,NA,NA,NA,NA,NA,NA,NA,NA,NA,NA,NA,NA,NA,NA,NA,"[]","small",1,"sch",6,23,3,4,2,1,2,1,"80908","35","female","woman","","caucasian","","No","",""
"24","5bbc18010cb04c00015025ce","svTrial","survey",31,810358,"0.0-2.0-29.0","65553732575bb29198a888d7","65565b96ab495319978d7ba8",8,"15099","Toyama_middle_sch_6_0.jpg",NA,NA,NA,NA,NA,NA,NA,NA,NA,NA,NA,NA,NA,NA,NA,NA,"[]","large",2,"pos",6,24,1,4,1,1,1,1,"80908","35","female","woman","","caucasian","","No","",""
"25","5bbc18010cb04c00015025ce","svTrial","survey",33,842918,"0.0-2.0-31.0","65553732575bb29198a888d7","65565b96ab495319978d7ba8",8,"16795","Kanagawa_large_sch_10_3.jpg",NA,NA,NA,NA,NA,NA,NA,NA,NA,NA,NA,NA,NA,NA,NA,NA,"[]","large",1,"pos",10,25,1,1,1,1,1,1,"80908","35","female","woman","","caucasian","","No","",""
"26","5bbc18010cb04c00015025ce","svTrial","survey",34,857643,"0.0-2.0-32.0","65553732575bb29198a888d7","65565b96ab495319978d7ba8",8,"14714","Ishikawa_middle_pos_8_2.jpg",NA,NA,NA,NA,NA,NA,NA,NA,NA,NA,NA,NA,NA,NA,NA,NA,"[]","small",2,"sch",8,26,2,5,2,2,2,1,"80908","35","female","woman","","caucasian","","No","",""
"27","5bbc18010cb04c00015025ce","svTrial","survey",35,873975,"0.0-2.0-33.0","65553732575bb29198a888d7","65565b96ab495319978d7ba8",8,"16323","Ishikawa_middle_pos_4_1.jpg",NA,NA,NA,NA,NA,NA,NA,NA,NA,NA,NA,NA,NA,NA,NA,NA,"[]","large",2,"sch",4,27,3,5,3,2,4,1,"80908","35","female","woman","","caucasian","","No","",""
"28","5bbc18010cb04c00015025ce","svTrial","survey",37,906621,"0.0-2.0-35.0","65553732575bb29198a888d7","65565b96ab495319978d7ba8",8,"22547","Tokyo_middle_pos_1_0.jpg",NA,NA,NA,NA,NA,NA,NA,NA,NA,NA,NA,NA,NA,NA,NA,NA,"[]","large",1,"sch",1,28,2,4,2,2,2,1,"80908","35","female","woman","","caucasian","","No","",""
"29","5bbc18010cb04c00015025ce","svTrial","survey",38,923446,"0.0-2.0-36.0","65553732575bb29198a888d7","65565b96ab495319978d7ba8",8,"16817","Niigata_middle_pos_2_2.jpg",NA,NA,NA,NA,NA,NA,NA,NA,NA,NA,NA,NA,NA,NA,NA,NA,"[]","large",2,"pos",2,29,1,3,1,1,1,1,"80908","35","female","woman","","caucasian","","No","",""
"30","5bbc18010cb04c00015025ce","svTrial","survey",39,937239,"0.0-2.0-37.0","65553732575bb29198a888d7","65565b96ab495319978d7ba8",8,"13784","Akita_middle_pos_7_2.jpg",NA,NA,NA,NA,NA,NA,NA,NA,NA,NA,NA,NA,NA,NA,NA,NA,"[]","middle",2,"pos",7,30,1,4,2,1,1,1,"80908","35","female","woman","","caucasian","","No","",""
"31","5bbc18010cb04c00015025ce","svTrial","survey",40,949049,"0.0-2.0-38.0","65553732575bb29198a888d7","65565b96ab495319978d7ba8",8,"11801","Akita_middle_pos_2_1.jpg",NA,NA,NA,NA,NA,NA,NA,NA,NA,NA,NA,NA,NA,NA,NA,NA,"[]","large",2,"sch",2,31,1,1,1,1,1,1,"80908","35","female","woman","","caucasian","","No","",""
"32","5bbc18010cb04c00015025ce","svTrial","survey",41,967108,"0.0-2.0-39.0","65553732575bb29198a888d7","65565b96ab495319978d7ba8",8,"18051","Tokyo_large_pos_9_1.jpg",NA,NA,NA,NA,NA,NA,NA,NA,NA,NA,NA,NA,NA,NA,NA,NA,"[]","large",1,"pos",9,32,2,3,2,2,2,1,"80908","35","female","woman","","caucasian","","No","",""
"33","5bbc18010cb04c00015025ce","svTrial","survey",42,984624,"0.0-2.0-40.0","65553732575bb29198a888d7","65565b96ab495319978d7ba8",8,"17506","Niigata_middle_pos_4_2.jpg",NA,NA,NA,NA,NA,NA,NA,NA,NA,NA,NA,NA,NA,NA,NA,NA,"[]","small",2,"pos",4,33,2,4,2,3,3,1,"80908","35","female","woman","","caucasian","","No","",""
"34","5bbc18010cb04c00015025ce","svTrial","survey",43,1013393,"0.0-2.0-41.0","65553732575bb29198a888d7","65565b96ab495319978d7ba8",8,"28758","Okinawa_small_sch_2_3.jpg",NA,NA,NA,NA,NA,NA,NA,NA,NA,NA,NA,NA,NA,NA,NA,NA,"[]","middle",1,"sch",2,34,5,2,5,4,4,1,"80908","35","female","woman","","caucasian","","No","",""
"35","5bbc18010cb04c00015025ce","svTrial","survey",44,1056593,"0.0-2.0-42.0","65553732575bb29198a888d7","65565b96ab495319978d7ba8",8,"43189","Akita_middle_pos_3_1.jpg",NA,NA,NA,NA,NA,NA,NA,NA,NA,NA,NA,NA,NA,NA,NA,NA,"[]","middle",2,"pos",3,35,4,3,2,2,2,1,"80908","35","female","woman","","caucasian","","No","",""
"36","5bbc18010cb04c00015025ce","svTrial","survey",45,1097780,"0.0-2.0-43.0","65553732575bb29198a888d7","65565b96ab495319978d7ba8",8,"41177","Okinawa_large_pos_11_1.jpg",NA,NA,NA,NA,NA,NA,NA,NA,NA,NA,NA,NA,NA,NA,NA,NA,"[]","large",1,"pos",11,36,2,3,3,2,2,1,"80908","35","female","woman","","caucasian","","No","",""
"37","5bbc18010cb04c00015025ce","svTrial","survey",46,1135064,"0.0-2.0-44.0","65553732575bb29198a888d7","65565b96ab495319978d7ba8",8,"37274","Toyama_middle_pos_3_3.jpg",NA,NA,NA,NA,NA,NA,NA,NA,NA,NA,NA,NA,NA,NA,NA,NA,"[]","large",2,"pos",3,37,3,4,4,2,3,1,"80908","35","female","woman","","caucasian","","No","",""
"38","5bbc18010cb04c00015025ce","svTrial","survey",47,1172100,"0.0-2.0-45.0","65553732575bb29198a888d7","65565b96ab495319978d7ba8",8,"37029","Ishikawa_large_sch_11_3.jpg",NA,NA,NA,NA,NA,NA,NA,NA,NA,NA,NA,NA,NA,NA,NA,NA,"[]","small",2,"pos",11,38,3,4,4,4,4,1,"80908","35","female","woman","","caucasian","","No","",""
"39","5bbc18010cb04c00015025ce","svTrial","survey",48,1190601,"0.0-2.0-46.0","65553732575bb29198a888d7","65565b96ab495319978d7ba8",8,"18493","Toyama_large_sch_2_2.jpg",NA,NA,NA,NA,NA,NA,NA,NA,NA,NA,NA,NA,NA,NA,NA,NA,"[]","large",2,"pos",2,39,2,4,3,4,4,1,"80908","35","female","woman","","caucasian","","No","",""
"40","5bbc18010cb04c00015025ce","svTrial","survey",49,1201830,"0.0-2.0-47.0","65553732575bb29198a888d7","65565b96ab495319978d7ba8",8,"11218","Toyama_large_sch_6_1.jpg",NA,NA,NA,NA,NA,NA,NA,NA,NA,NA,NA,NA,NA,NA,NA,NA,"[]","middle",2,"sch",6,40,1,1,1,1,1,1,"80908","35","female","woman","","caucasian","","No","",""
"41","5bbc18010cb04c00015025ce","svTrial","survey",50,1229860,"0.0-2.0-48.0","65553732575bb29198a888d7","65565b96ab495319978d7ba8",8,"28023","Tokyo_large_pos_8_1.jpg",NA,NA,NA,NA,NA,NA,NA,NA,NA,NA,NA,NA,NA,NA,NA,NA,"[]","small",1,"sch",8,41,2,4,4,3,4,1,"80908","35","female","woman","","caucasian","","No","",""
"42","5bbc18010cb04c00015025ce","svTrial","survey",51,1243089,"0.0-2.0-49.0","65553732575bb29198a888d7","65565b96ab495319978d7ba8",8,"13219","Akita_large_pos_4_0.jpg",NA,NA,NA,NA,NA,NA,NA,NA,NA,NA,NA,NA,NA,NA,NA,NA,"[]","middle",2,"pos",4,42,1,1,1,2,1,1,"80908","35","female","woman","","caucasian","","No","",""
"43","5bbc18010cb04c00015025ce","svTrial","survey",52,1257807,"0.0-2.0-50.0","65553732575bb29198a888d7","65565b96ab495319978d7ba8",8,"14709","Tokyo_middle_pos_2_1.jpg",NA,NA,NA,NA,NA,NA,NA,NA,NA,NA,NA,NA,NA,NA,NA,NA,"[]","large",1,"pos",2,43,1,4,2,2,2,1,"80908","35","female","woman","","caucasian","","No","",""
"44","5bbc18010cb04c00015025ce","svTrial","survey",53,1274286,"0.0-2.0-51.0","65553732575bb29198a888d7","65565b96ab495319978d7ba8",8,"16468","Okinawa_middle_pos_8_0.jpg",NA,NA,NA,NA,NA,NA,NA,NA,NA,NA,NA,NA,NA,NA,NA,NA,"[]","small",1,"pos",8,44,3,2,2,3,2,1,"80908","35","female","woman","","caucasian","","No","",""
"45","5bbc18010cb04c00015025ce","svTrial","survey",54,1317465,"0.0-2.0-52.0","65553732575bb29198a888d7","65565b96ab495319978d7ba8",8,"43168","Okinawa_middle_pos_7_1.jpg",NA,NA,NA,NA,NA,NA,NA,NA,NA,NA,NA,NA,NA,NA,NA,NA,"[]","middle",1,"sch",7,45,2,4,2,2,4,1,"80908","35","female","woman","","caucasian","","No","",""
"46","5bbc18010cb04c00015025ce","svTrial","survey",55,1330399,"0.0-2.0-53.0","65553732575bb29198a888d7","65565b96ab495319978d7ba8",8,"12924","Toyama_large_pos_2_3.jpg",NA,NA,NA,NA,NA,NA,NA,NA,NA,NA,NA,NA,NA,NA,NA,NA,"[]","large",2,"sch",2,46,2,2,2,1,1,1,"80908","35","female","woman","","caucasian","","No","",""
"47","5bbc18010cb04c00015025ce","svTrial","survey",56,1345332,"0.0-2.0-54.0","65553732575bb29198a888d7","65565b96ab495319978d7ba8",8,"14924","Tokyo_small_sch_2_3.jpg",NA,NA,NA,NA,NA,NA,NA,NA,NA,NA,NA,NA,NA,NA,NA,NA,"[]","small",1,"pos",2,47,2,1,1,3,3,1,"80908","35","female","woman","","caucasian","","No","",""
"48","5bbc18010cb04c00015025ce","svTrial","survey",57,1357241,"0.0-2.0-55.0","65553732575bb29198a888d7","65565b96ab495319978d7ba8",8,"11898","Niigata_middle_sch_6_0.jpg",NA,NA,NA,NA,NA,NA,NA,NA,NA,NA,NA,NA,NA,NA,NA,NA,"[]","large",2,"sch",6,48,3,4,4,2,2,1,"80908","35","female","woman","","caucasian","","No","",""
