"","subject_id","task","trial_type","trial_index","time_elapsed","internal_node_id","study_id","session_id","group","rt","stimulus","width","height","webaudio","browser","browser_version","mobile","os","fullscreen","vsync_rate","webcam","microphone","success","timeout","failed_images","failed_audio","failed_video","accuracy","size","culture","loct","number","document.id","ambiguous","objects","invisible","chaos","complex","passedChecks","zipcode","age","sex","gender","gender-self-describe","ethnicity","ethnicity-self-describe","outsideUS","outsideUS_years","surveyComments"
"1","5c1bc0ab84ff14000184c2ce","svTrial","survey",8,585425,"0.0-2.0-6.0","65553732575bb29198a888d7","65565aebd1570099995f3103",7,"30459","Hokkaido_middle_sch_8_1.jpg",NA,NA,NA,NA,NA,NA,NA,NA,NA,NA,NA,NA,NA,NA,NA,NA,"[]","large",1,"pos",8,1,2,1,4,2,2,1,"78214","39","male","man","","latino","","No","",""
"2","5c1bc0ab84ff14000184c2ce","svTrial","survey",9,610789,"0.0-2.0-7.0","65553732575bb29198a888d7","65565aebd1570099995f3103",7,"25351","Kanagawa_large_sch_1_3.jpg",NA,NA,NA,NA,NA,NA,NA,NA,NA,NA,NA,NA,NA,NA,NA,NA,"[]","middle",1,"sch",1,2,4,3,4,3,3,1,"78214","39","male","man","","latino","","No","",""
"3","5c1bc0ab84ff14000184c2ce","svTrial","survey",10,653566,"0.0-2.0-8.0","65553732575bb29198a888d7","65565aebd1570099995f3103",7,"42763","Akita_small_pos_3_0.jpg",NA,NA,NA,NA,NA,NA,NA,NA,NA,NA,NA,NA,NA,NA,NA,NA,"[]","small",2,"pos",3,3,4,4,4,4,3,1,"78214","39","male","man","","latino","","No","",""
"4","5c1bc0ab84ff14000184c2ce","svTrial","survey",11,923411,"0.0-2.0-9.0","65553732575bb29198a888d7","65565aebd1570099995f3103",7,"269834","Okinawa_middle_pos_5_3.jpg",NA,NA,NA,NA,NA,NA,NA,NA,NA,NA,NA,NA,NA,NA,NA,NA,"[]","large",1,"sch",5,4,5,4,5,4,4,1,"78214","39","male","man","","latino","","No","",""
"5","5c1bc0ab84ff14000184c2ce","svTrial","survey",12,962929,"0.0-2.0-10.0","65553732575bb29198a888d7","65565aebd1570099995f3103",7,"39510","Tokyo_middle_sch_4_2.jpg",NA,NA,NA,NA,NA,NA,NA,NA,NA,NA,NA,NA,NA,NA,NA,NA,"[]","large",1,"sch",4,5,4,NA,4,4,3,1,"78214","39","male","man","","latino","","No","",""
"6","5c1bc0ab84ff14000184c2ce","svTrial","survey",13,991200,"0.0-2.0-11.0","65553732575bb29198a888d7","65565aebd1570099995f3103",7,"28263","Ishikawa_large_sch_7_0.jpg",NA,NA,NA,NA,NA,NA,NA,NA,NA,NA,NA,NA,NA,NA,NA,NA,"[]","large",2,"pos",7,6,3,2,2,2,2,1,"78214","39","male","man","","latino","","No","",""
"7","5c1bc0ab84ff14000184c2ce","svTrial","survey",14,1089457,"0.0-2.0-12.0","65553732575bb29198a888d7","65565aebd1570099995f3103",7,"98249","Tokyo_large_sch_3_0.jpg",NA,NA,NA,NA,NA,NA,NA,NA,NA,NA,NA,NA,NA,NA,NA,NA,"[]","large",1,"sch",3,7,4,3,3,3,3,1,"78214","39","male","man","","latino","","No","",""
"8","5c1bc0ab84ff14000184c2ce","svTrial","survey",15,1189131,"0.0-2.0-13.0","65553732575bb29198a888d7","65565aebd1570099995f3103",7,"99665","Hokkaido_small_pos_4_1.jpg",NA,NA,NA,NA,NA,NA,NA,NA,NA,NA,NA,NA,NA,NA,NA,NA,"[]","small",1,"pos",4,8,2,2,2,2,2,1,"78214","39","male","man","","latino","","No","",""
"9","5c1bc0ab84ff14000184c2ce","svTrial","survey",16,1199260,"0.0-2.0-14.0","65553732575bb29198a888d7","65565aebd1570099995f3103",7,"10121","Niigata_small_sch_2_0.jpg",NA,NA,NA,NA,NA,NA,NA,NA,NA,NA,NA,NA,NA,NA,NA,NA,"[]","small",2,"sch",2,9,NA,1,1,1,1,1,"78214","39","male","man","","latino","","No","",""
"10","5c1bc0ab84ff14000184c2ce","svTrial","survey",17,1211337,"0.0-2.0-15.0","65553732575bb29198a888d7","65565aebd1570099995f3103",7,"12066","Niigata_middle_sch_3_0.jpg",NA,NA,NA,NA,NA,NA,NA,NA,NA,NA,NA,NA,NA,NA,NA,NA,"[]","middle",2,"pos",3,10,4,2,2,2,2,1,"78214","39","male","man","","latino","","No","",""
"11","5c1bc0ab84ff14000184c2ce","svTrial","survey",18,1342440,"0.0-2.0-16.0","65553732575bb29198a888d7","65565aebd1570099995f3103",7,"131097","Tokyo_middle_pos_4_3.jpg",NA,NA,NA,NA,NA,NA,NA,NA,NA,NA,NA,NA,NA,NA,NA,NA,"[]","small",1,"pos",4,11,3,4,3,3,3,1,"78214","39","male","man","","latino","","No","",""
"12","5c1bc0ab84ff14000184c2ce","svTrial","survey",19,1490395,"0.0-2.0-17.0","65553732575bb29198a888d7","65565aebd1570099995f3103",7,"147946","Akita_middle_sch_3_0.jpg",NA,NA,NA,NA,NA,NA,NA,NA,NA,NA,NA,NA,NA,NA,NA,NA,"[]","large",2,"pos",3,12,4,3,3,3,2,1,"78214","39","male","man","","latino","","No","",""
"13","5c1bc0ab84ff14000184c2ce","svTrial","survey",20,1501460,"0.0-2.0-18.0","65553732575bb29198a888d7","65565aebd1570099995f3103",7,"11056","Okinawa_small_sch_3_0.jpg",NA,NA,NA,NA,NA,NA,NA,NA,NA,NA,NA,NA,NA,NA,NA,NA,"[]","large",1,"sch",3,13,4,2,3,3,3,1,"78214","39","male","man","","latino","","No","",""
"14","5c1bc0ab84ff14000184c2ce","svTrial","survey",21,1517140,"0.0-2.0-19.0","65553732575bb29198a888d7","65565aebd1570099995f3103",7,"15671","Tokyo_large_pos_10_3.jpg",NA,NA,NA,NA,NA,NA,NA,NA,NA,NA,NA,NA,NA,NA,NA,NA,"[]","large",1,"sch",10,14,4,4,4,5,4,1,"78214","39","male","man","","latino","","No","",""
"15","5c1bc0ab84ff14000184c2ce","svTrial","survey",22,1526890,"0.0-2.0-20.0","65553732575bb29198a888d7","65565aebd1570099995f3103",7,"9742","Niigata_large_pos_7_2.jpg",NA,NA,NA,NA,NA,NA,NA,NA,NA,NA,NA,NA,NA,NA,NA,NA,"[]","middle",2,"sch",7,15,4,3,3,3,3,1,"78214","39","male","man","","latino","","No","",""
"16","5c1bc0ab84ff14000184c2ce","svTrial","survey",23,1549048,"0.0-2.0-21.0","65553732575bb29198a888d7","65565aebd1570099995f3103",7,"22137","Tokyo_large_sch_6_2.jpg",NA,NA,NA,NA,NA,NA,NA,NA,NA,NA,NA,NA,NA,NA,NA,NA,"[]","large",1,"sch",6,16,4,3,3,3,3,1,"78214","39","male","man","","latino","","No","",""
"17","5c1bc0ab84ff14000184c2ce","svTrial","survey",24,1620279,"0.0-2.0-22.0","65553732575bb29198a888d7","65565aebd1570099995f3103",7,"71218","Hokkaido_large_pos_8_3.jpg",NA,NA,NA,NA,NA,NA,NA,NA,NA,NA,NA,NA,NA,NA,NA,NA,"[]","small",1,"sch",8,17,2,2,3,2,2,1,"78214","39","male","man","","latino","","No","",""
"18","5c1bc0ab84ff14000184c2ce","svTrial","survey",25,2167783,"0.0-2.0-23.0","65553732575bb29198a888d7","65565aebd1570099995f3103",7,"547496","Okinawa_middle_sch_8_1.jpg",NA,NA,NA,NA,NA,NA,NA,NA,NA,NA,NA,NA,NA,NA,NA,NA,"[]","large",1,"sch",8,18,3,3,3,3,2,1,"78214","39","male","man","","latino","","No","",""
"19","5c1bc0ab84ff14000184c2ce","svTrial","survey",26,2326066,"0.0-2.0-24.0","65553732575bb29198a888d7","65565aebd1570099995f3103",7,"158269","Okinawa_large_pos_7_1.jpg",NA,NA,NA,NA,NA,NA,NA,NA,NA,NA,NA,NA,NA,NA,NA,NA,"[]","large",1,"sch",7,19,3,3,2,2,2,1,"78214","39","male","man","","latino","","No","",""
"20","5c1bc0ab84ff14000184c2ce","svTrial","survey",27,2344584,"0.0-2.0-25.0","65553732575bb29198a888d7","65565aebd1570099995f3103",7,"18510","Ishikawa_middle_pos_5_3.jpg",NA,NA,NA,NA,NA,NA,NA,NA,NA,NA,NA,NA,NA,NA,NA,NA,"[]","large",2,"sch",5,20,4,3,4,3,3,1,"78214","39","male","man","","latino","","No","",""
"21","5c1bc0ab84ff14000184c2ce","svTrial","survey",28,2402519,"0.0-2.0-26.0","65553732575bb29198a888d7","65565aebd1570099995f3103",7,"57928","Akita_small_pos_1_3.jpg",NA,NA,NA,NA,NA,NA,NA,NA,NA,NA,NA,NA,NA,NA,NA,NA,"[]","middle",2,"pos",1,21,5,4,4,3,4,1,"78214","39","male","man","","latino","","No","",""
"22","5c1bc0ab84ff14000184c2ce","svTrial","survey",29,2424638,"0.0-2.0-27.0","65553732575bb29198a888d7","65565aebd1570099995f3103",7,"22111","Akita_middle_pos_8_0.jpg",NA,NA,NA,NA,NA,NA,NA,NA,NA,NA,NA,NA,NA,NA,NA,NA,"[]","small",2,"sch",8,22,3,2,3,2,2,1,"78214","39","male","man","","latino","","No","",""
"23","5c1bc0ab84ff14000184c2ce","svTrial","survey",30,2477791,"0.0-2.0-28.0","65553732575bb29198a888d7","65565aebd1570099995f3103",7,"53143","Akita_middle_pos_6_0.jpg",NA,NA,NA,NA,NA,NA,NA,NA,NA,NA,NA,NA,NA,NA,NA,NA,"[]","large",2,"sch",6,23,4,2,3,3,2,1,"78214","39","male","man","","latino","","No","",""
"24","5c1bc0ab84ff14000184c2ce","svTrial","survey",31,2537927,"0.0-2.0-29.0","65553732575bb29198a888d7","65565aebd1570099995f3103",7,"60126","Ishikawa_large_sch_8_3.jpg",NA,NA,NA,NA,NA,NA,NA,NA,NA,NA,NA,NA,NA,NA,NA,NA,"[]","large",2,"pos",8,24,3,2,2,2,2,1,"78214","39","male","man","","latino","","No","",""
"25","5c1bc0ab84ff14000184c2ce","svTrial","survey",33,2567725,"0.0-2.0-31.0","65553732575bb29198a888d7","65565aebd1570099995f3103",7,"14028","Tokyo_large_sch_4_1.jpg",NA,NA,NA,NA,NA,NA,NA,NA,NA,NA,NA,NA,NA,NA,NA,NA,"[]","small",1,"pos",4,25,4,4,3,4,3,1,"78214","39","male","man","","latino","","No","",""
"26","5c1bc0ab84ff14000184c2ce","svTrial","survey",34,2575015,"0.0-2.0-32.0","65553732575bb29198a888d7","65565aebd1570099995f3103",7,"7280","Ishikawa_small_pos_2_0.jpg",NA,NA,NA,NA,NA,NA,NA,NA,NA,NA,NA,NA,NA,NA,NA,NA,"[]","middle",2,"pos",2,26,4,3,3,4,3,1,"78214","39","male","man","","latino","","No","",""
"27","5c1bc0ab84ff14000184c2ce","svTrial","survey",35,2588693,"0.0-2.0-33.0","65553732575bb29198a888d7","65565aebd1570099995f3103",7,"13666","Kanagawa_middle_sch_4_3.jpg",NA,NA,NA,NA,NA,NA,NA,NA,NA,NA,NA,NA,NA,NA,NA,NA,"[]","middle",1,"sch",4,27,3,2,3,3,3,1,"78214","39","male","man","","latino","","No","",""
"28","5c1bc0ab84ff14000184c2ce","svTrial","survey",36,2599142,"0.0-2.0-34.0","65553732575bb29198a888d7","65565aebd1570099995f3103",7,"10442","Hokkaido_small_sch_1_3.jpg",NA,NA,NA,NA,NA,NA,NA,NA,NA,NA,NA,NA,NA,NA,NA,NA,"[]","small",1,"pos",1,28,4,3,3,4,3,1,"78214","39","male","man","","latino","","No","",""
"29","5c1bc0ab84ff14000184c2ce","svTrial","survey",37,2662910,"0.0-2.0-35.0","65553732575bb29198a888d7","65565aebd1570099995f3103",7,"63759","Hokkaido_middle_pos_5_0.jpg",NA,NA,NA,NA,NA,NA,NA,NA,NA,NA,NA,NA,NA,NA,NA,NA,"[]","middle",1,"pos",5,29,4,3,2,2,2,1,"78214","39","male","man","","latino","","No","",""
"30","5c1bc0ab84ff14000184c2ce","svTrial","survey",38,2691668,"0.0-2.0-36.0","65553732575bb29198a888d7","65565aebd1570099995f3103",7,"28733","Niigata_large_sch_12_0.jpg",NA,NA,NA,NA,NA,NA,NA,NA,NA,NA,NA,NA,NA,NA,NA,NA,"[]","middle",2,"sch",12,30,4,3,2,2,3,1,"78214","39","male","man","","latino","","No","",""
"31","5c1bc0ab84ff14000184c2ce","svTrial","survey",39,2703045,"0.0-2.0-37.0","65553732575bb29198a888d7","65565aebd1570099995f3103",7,"11359","Toyama_large_sch_3_2.jpg",NA,NA,NA,NA,NA,NA,NA,NA,NA,NA,NA,NA,NA,NA,NA,NA,"[]","large",2,"sch",3,31,4,3,3,3,2,1,"78214","39","male","man","","latino","","No","",""
"32","5c1bc0ab84ff14000184c2ce","svTrial","survey",40,2718630,"0.0-2.0-38.0","65553732575bb29198a888d7","65565aebd1570099995f3103",7,"15573","Hokkaido_large_sch_9_2.jpg",NA,NA,NA,NA,NA,NA,NA,NA,NA,NA,NA,NA,NA,NA,NA,NA,"[]","large",1,"sch",9,32,2,3,2,2,2,1,"78214","39","male","man","","latino","","No","",""
"33","5c1bc0ab84ff14000184c2ce","svTrial","survey",41,2762141,"0.0-2.0-39.0","65553732575bb29198a888d7","65565aebd1570099995f3103",7,"43504","Hokkaido_large_sch_7_0.jpg",NA,NA,NA,NA,NA,NA,NA,NA,NA,NA,NA,NA,NA,NA,NA,NA,"[]","large",1,"sch",7,33,4,3,2,3,3,1,"78214","39","male","man","","latino","","No","",""
"34","5c1bc0ab84ff14000184c2ce","svTrial","survey",42,2780560,"0.0-2.0-40.0","65553732575bb29198a888d7","65565aebd1570099995f3103",7,"18408","Ishikawa_middle_sch_3_0.jpg",NA,NA,NA,NA,NA,NA,NA,NA,NA,NA,NA,NA,NA,NA,NA,NA,"[]","small",2,"sch",3,34,2,2,3,2,2,1,"78214","39","male","man","","latino","","No","",""
"35","5c1bc0ab84ff14000184c2ce","svTrial","survey",43,2796685,"0.0-2.0-41.0","65553732575bb29198a888d7","65565aebd1570099995f3103",7,"16110","Niigata_large_sch_6_0.jpg",NA,NA,NA,NA,NA,NA,NA,NA,NA,NA,NA,NA,NA,NA,NA,NA,"[]","small",2,"sch",6,35,2,1,2,2,2,1,"78214","39","male","man","","latino","","No","",""
"36","5c1bc0ab84ff14000184c2ce","svTrial","survey",44,2938159,"0.0-2.0-42.0","65553732575bb29198a888d7","65565aebd1570099995f3103",7,"141467","Ishikawa_middle_sch_6_0.jpg",NA,NA,NA,NA,NA,NA,NA,NA,NA,NA,NA,NA,NA,NA,NA,NA,"[]","large",2,"sch",6,36,3,4,3,3,2,1,"78214","39","male","man","","latino","","No","",""
"37","5c1bc0ab84ff14000184c2ce","svTrial","survey",45,2963724,"0.0-2.0-43.0","65553732575bb29198a888d7","65565aebd1570099995f3103",7,"25558","Akita_middle_pos_4_1.jpg",NA,NA,NA,NA,NA,NA,NA,NA,NA,NA,NA,NA,NA,NA,NA,NA,"[]","large",2,"pos",4,37,2,3,2,3,3,1,"78214","39","male","man","","latino","","No","",""
"38","5c1bc0ab84ff14000184c2ce","svTrial","survey",46,2972237,"0.0-2.0-44.0","65553732575bb29198a888d7","65565aebd1570099995f3103",7,"8500","Kanagawa_large_pos_8_1.jpg",NA,NA,NA,NA,NA,NA,NA,NA,NA,NA,NA,NA,NA,NA,NA,NA,"[]","large",1,"pos",8,38,5,5,5,5,5,1,"78214","39","male","man","","latino","","No","",""
"39","5c1bc0ab84ff14000184c2ce","svTrial","survey",47,2985740,"0.0-2.0-45.0","65553732575bb29198a888d7","65565aebd1570099995f3103",7,"13497","Ishikawa_small_pos_1_1.jpg",NA,NA,NA,NA,NA,NA,NA,NA,NA,NA,NA,NA,NA,NA,NA,NA,"[]","small",2,"pos",1,39,2,2,2,2,2,1,"78214","39","male","man","","latino","","No","",""
"40","5c1bc0ab84ff14000184c2ce","svTrial","survey",48,2999967,"0.0-2.0-46.0","65553732575bb29198a888d7","65565aebd1570099995f3103",7,"14220","Toyama_large_sch_7_1.jpg",NA,NA,NA,NA,NA,NA,NA,NA,NA,NA,NA,NA,NA,NA,NA,NA,"[]","small",2,"sch",7,40,2,2,1,2,1,1,"78214","39","male","man","","latino","","No","",""
"41","5c1bc0ab84ff14000184c2ce","svTrial","survey",49,3063816,"0.0-2.0-47.0","65553732575bb29198a888d7","65565aebd1570099995f3103",7,"63842","Tokyo_large_pos_11_2.jpg",NA,NA,NA,NA,NA,NA,NA,NA,NA,NA,NA,NA,NA,NA,NA,NA,"[]","small",1,"sch",11,41,3,2,2,2,2,1,"78214","39","male","man","","latino","","No","",""
"42","5c1bc0ab84ff14000184c2ce","svTrial","survey",51,3148798,"0.0-2.0-49.0","65553732575bb29198a888d7","65565aebd1570099995f3103",7,"79591","Ishikawa_middle_sch_7_2.jpg",NA,NA,NA,NA,NA,NA,NA,NA,NA,NA,NA,NA,NA,NA,NA,NA,"[]","large",2,"pos",7,42,4,4,3,4,3,1,"78214","39","male","man","","latino","","No","",""
"43","5c1bc0ab84ff14000184c2ce","svTrial","survey",52,3161774,"0.0-2.0-50.0","65553732575bb29198a888d7","65565aebd1570099995f3103",7,"12969","Niigata_small_pos_4_0.jpg",NA,NA,NA,NA,NA,NA,NA,NA,NA,NA,NA,NA,NA,NA,NA,NA,"[]","middle",2,"sch",4,43,3,3,3,2,2,1,"78214","39","male","man","","latino","","No","",""
"44","5c1bc0ab84ff14000184c2ce","svTrial","survey",53,3178101,"0.0-2.0-51.0","65553732575bb29198a888d7","65565aebd1570099995f3103",7,"16317","Okinawa_middle_sch_6_1.jpg",NA,NA,NA,NA,NA,NA,NA,NA,NA,NA,NA,NA,NA,NA,NA,NA,"[]","small",1,"sch",6,44,4,3,2,3,2,1,"78214","39","male","man","","latino","","No","",""
"45","5c1bc0ab84ff14000184c2ce","svTrial","survey",54,3229724,"0.0-2.0-52.0","65553732575bb29198a888d7","65565aebd1570099995f3103",7,"51610","Tokyo_middle_sch_1_2.jpg",NA,NA,NA,NA,NA,NA,NA,NA,NA,NA,NA,NA,NA,NA,NA,NA,"[]","large",1,"sch",1,45,3,2,3,3,2,1,"78214","39","male","man","","latino","","No","",""
"46","5c1bc0ab84ff14000184c2ce","svTrial","survey",55,3307132,"0.0-2.0-53.0","65553732575bb29198a888d7","65565aebd1570099995f3103",7,"77397","Niigata_middle_sch_1_1.jpg",NA,NA,NA,NA,NA,NA,NA,NA,NA,NA,NA,NA,NA,NA,NA,NA,"[]","large",2,"sch",1,46,4,2,2,2,2,1,"78214","39","male","man","","latino","","No","",""
"47","5c1bc0ab84ff14000184c2ce","svTrial","survey",56,3365617,"0.0-2.0-54.0","65553732575bb29198a888d7","65565aebd1570099995f3103",7,"58475","Hokkaido_large_pos_6_2.jpg",NA,NA,NA,NA,NA,NA,NA,NA,NA,NA,NA,NA,NA,NA,NA,NA,"[]","middle",1,"pos",6,47,3,2,3,2,2,1,"78214","39","male","man","","latino","","No","",""
"48","5c1bc0ab84ff14000184c2ce","svTrial","survey",57,3377422,"0.0-2.0-55.0","65553732575bb29198a888d7","65565aebd1570099995f3103",7,"11796","Toyama_middle_sch_2_3.jpg",NA,NA,NA,NA,NA,NA,NA,NA,NA,NA,NA,NA,NA,NA,NA,NA,"[]","large",2,"pos",2,48,2,2,2,2,2,1,"78214","39","male","man","","latino","","No","",""
