"","subject_id","task","trial_type","trial_index","time_elapsed","internal_node_id","study_id","session_id","group","rt","stimulus","width","height","webaudio","browser","browser_version","mobile","os","fullscreen","vsync_rate","webcam","microphone","success","timeout","failed_images","failed_audio","failed_video","accuracy","size","culture","loct","number","document.id","ambiguous","objects","invisible","chaos","complex","passedChecks","zipcode","age","sex","gender","gender-self-describe","ethnicity","ethnicity-self-describe","outsideUS","outsideUS_years","surveyComments"
"1","5c284ae48e845b0001fc40aa","svTrial","survey",8,238606,"0.0-2.0-6.0","65553732575bb29198a888d7","655659770f9eae4d14f0705d",2,"39879","Niigata_middle_pos_8_2.jpg",NA,NA,NA,NA,NA,NA,NA,NA,NA,NA,NA,NA,NA,NA,NA,NA,"[]","middle",2,"pos",8,1,4,3,5,4,3,1,"93720","38","male","man","","caucasian","","No","",""
"2","5c284ae48e845b0001fc40aa","svTrial","survey",9,402537,"0.0-2.0-7.0","65553732575bb29198a888d7","655659770f9eae4d14f0705d",2,"163941","Kanagawa_small_pos_3_2.jpg",NA,NA,NA,NA,NA,NA,NA,NA,NA,NA,NA,NA,NA,NA,NA,NA,"[]","large",1,"sch",3,2,4,5,5,4,4,1,"93720","38","male","man","","caucasian","","No","",""
"3","5c284ae48e845b0001fc40aa","svTrial","survey",10,492812,"0.0-2.0-8.0","65553732575bb29198a888d7","655659770f9eae4d14f0705d",2,"90275","Tokyo_large_pos_5_3.jpg",NA,NA,NA,NA,NA,NA,NA,NA,NA,NA,NA,NA,NA,NA,NA,NA,"[]","middle",1,"pos",5,3,2,2,3,2,3,1,"93720","38","male","man","","caucasian","","No","",""
"4","5c284ae48e845b0001fc40aa","svTrial","survey",11,518965,"0.0-2.0-9.0","65553732575bb29198a888d7","655659770f9eae4d14f0705d",2,"26144","Toyama_middle_pos_2_0.jpg",NA,NA,NA,NA,NA,NA,NA,NA,NA,NA,NA,NA,NA,NA,NA,NA,"[]","middle",2,"pos",2,4,4,4,5,3,4,1,"93720","38","male","man","","caucasian","","No","",""
"5","5c284ae48e845b0001fc40aa","svTrial","survey",12,620140,"0.0-2.0-10.0","65553732575bb29198a888d7","655659770f9eae4d14f0705d",2,"101178","Hokkaido_middle_sch_5_0.jpg",NA,NA,NA,NA,NA,NA,NA,NA,NA,NA,NA,NA,NA,NA,NA,NA,"[]","small",1,"pos",5,5,2,2,2,2,2,1,"93720","38","male","man","","caucasian","","No","",""
"6","5c284ae48e845b0001fc40aa","svTrial","survey",13,666596,"0.0-2.0-11.0","65553732575bb29198a888d7","655659770f9eae4d14f0705d",2,"46455","Ishikawa_large_sch_1_0.jpg",NA,NA,NA,NA,NA,NA,NA,NA,NA,NA,NA,NA,NA,NA,NA,NA,"[]","middle",2,"sch",1,6,4,4,4,4,4,1,"93720","38","male","man","","caucasian","","No","",""
"7","5c284ae48e845b0001fc40aa","svTrial","survey",14,735619,"0.0-2.0-12.0","65553732575bb29198a888d7","655659770f9eae4d14f0705d",2,"69022","Niigata_large_pos_6_0.jpg",NA,NA,NA,NA,NA,NA,NA,NA,NA,NA,NA,NA,NA,NA,NA,NA,"[]","large",2,"sch",6,7,4,5,5,5,4,1,"93720","38","male","man","","caucasian","","No","",""
"8","5c284ae48e845b0001fc40aa","svTrial","survey",15,791421,"0.0-2.0-13.0","65553732575bb29198a888d7","655659770f9eae4d14f0705d",2,"55800","Tokyo_middle_sch_8_0.jpg",NA,NA,NA,NA,NA,NA,NA,NA,NA,NA,NA,NA,NA,NA,NA,NA,"[]","small",1,"sch",8,8,5,5,4,4,4,1,"93720","38","male","man","","caucasian","","No","",""
"9","5c284ae48e845b0001fc40aa","svTrial","survey",16,859680,"0.0-2.0-14.0","65553732575bb29198a888d7","655659770f9eae4d14f0705d",2,"68255","Ishikawa_large_sch_5_3.jpg",NA,NA,NA,NA,NA,NA,NA,NA,NA,NA,NA,NA,NA,NA,NA,NA,"[]","large",2,"sch",5,9,4,3,3,3,3,1,"93720","38","male","man","","caucasian","","No","",""
"10","5c284ae48e845b0001fc40aa","svTrial","survey",17,967696,"0.0-2.0-15.0","65553732575bb29198a888d7","655659770f9eae4d14f0705d",2,"108013","Toyama_large_sch_1_2.jpg",NA,NA,NA,NA,NA,NA,NA,NA,NA,NA,NA,NA,NA,NA,NA,NA,"[]","middle",2,"sch",1,10,3,2,2,2,2,1,"93720","38","male","man","","caucasian","","No","",""
"11","5c284ae48e845b0001fc40aa","svTrial","survey",18,984916,"0.0-2.0-16.0","65553732575bb29198a888d7","655659770f9eae4d14f0705d",2,"17217","Toyama_middle_pos_4_3.jpg",NA,NA,NA,NA,NA,NA,NA,NA,NA,NA,NA,NA,NA,NA,NA,NA,"[]","large",2,"sch",4,11,4,3,4,3,3,1,"93720","38","male","man","","caucasian","","No","",""
"12","5c284ae48e845b0001fc40aa","svTrial","survey",19,1013297,"0.0-2.0-17.0","65553732575bb29198a888d7","655659770f9eae4d14f0705d",2,"28372","Kanagawa_large_sch_7_0.jpg",NA,NA,NA,NA,NA,NA,NA,NA,NA,NA,NA,NA,NA,NA,NA,NA,"[]","middle",1,"pos",7,12,5,2,4,3,3,1,"93720","38","male","man","","caucasian","","No","",""
"13","5c284ae48e845b0001fc40aa","svTrial","survey",20,1167903,"0.0-2.0-18.0","65553732575bb29198a888d7","655659770f9eae4d14f0705d",2,"154613","Toyama_large_sch_5_2.jpg",NA,NA,NA,NA,NA,NA,NA,NA,NA,NA,NA,NA,NA,NA,NA,NA,"[]","large",2,"sch",5,13,5,3,4,4,3,1,"93720","38","male","man","","caucasian","","No","",""
"14","5c284ae48e845b0001fc40aa","svTrial","survey",21,1202410,"0.0-2.0-19.0","65553732575bb29198a888d7","655659770f9eae4d14f0705d",2,"34496","Okinawa_large_sch_3_1.jpg",NA,NA,NA,NA,NA,NA,NA,NA,NA,NA,NA,NA,NA,NA,NA,NA,"[]","large",1,"pos",3,14,5,5,4,4,4,1,"93720","38","male","man","","caucasian","","No","",""
"15","5c284ae48e845b0001fc40aa","svTrial","survey",22,1305615,"0.0-2.0-20.0","65553732575bb29198a888d7","655659770f9eae4d14f0705d",2,"103208","Hokkaido_large_pos_12_3.jpg",NA,NA,NA,NA,NA,NA,NA,NA,NA,NA,NA,NA,NA,NA,NA,NA,"[]","middle",1,"sch",12,15,4,4,4,4,3,1,"93720","38","male","man","","caucasian","","No","",""
"16","5c284ae48e845b0001fc40aa","svTrial","survey",23,1413199,"0.0-2.0-21.0","65553732575bb29198a888d7","655659770f9eae4d14f0705d",2,"107577","Niigata_middle_sch_5_2.jpg",NA,NA,NA,NA,NA,NA,NA,NA,NA,NA,NA,NA,NA,NA,NA,NA,"[]","small",2,"pos",5,16,4,2,3,2,2,1,"93720","38","male","man","","caucasian","","No","",""
"17","5c284ae48e845b0001fc40aa","svTrial","survey",24,1463331,"0.0-2.0-22.0","65553732575bb29198a888d7","655659770f9eae4d14f0705d",2,"50127","Akita_middle_sch_2_1.jpg",NA,NA,NA,NA,NA,NA,NA,NA,NA,NA,NA,NA,NA,NA,NA,NA,"[]","middle",2,"sch",2,17,3,2,2,2,2,1,"93720","38","male","man","","caucasian","","No","",""
"18","5c284ae48e845b0001fc40aa","svTrial","survey",25,1488114,"0.0-2.0-23.0","65553732575bb29198a888d7","655659770f9eae4d14f0705d",2,"24780","Akita_middle_sch_7_1.jpg",NA,NA,NA,NA,NA,NA,NA,NA,NA,NA,NA,NA,NA,NA,NA,NA,"[]","large",2,"sch",7,18,3,2,3,3,2,1,"93720","38","male","man","","caucasian","","No","",""
"19","5c284ae48e845b0001fc40aa","svTrial","survey",26,1633205,"0.0-2.0-24.0","65553732575bb29198a888d7","655659770f9eae4d14f0705d",2,"145094","Okinawa_large_sch_9_3.jpg",NA,NA,NA,NA,NA,NA,NA,NA,NA,NA,NA,NA,NA,NA,NA,NA,"[]","small",1,"sch",9,19,5,4,5,4,3,1,"93720","38","male","man","","caucasian","","No","",""
"20","5c284ae48e845b0001fc40aa","svTrial","survey",27,1659089,"0.0-2.0-25.0","65553732575bb29198a888d7","655659770f9eae4d14f0705d",2,"25875","Okinawa_large_sch_1_2.jpg",NA,NA,NA,NA,NA,NA,NA,NA,NA,NA,NA,NA,NA,NA,NA,NA,"[]","middle",1,"pos",1,20,3,4,4,4,4,1,"93720","38","male","man","","caucasian","","No","",""
"21","5c284ae48e845b0001fc40aa","svTrial","survey",28,1794388,"0.0-2.0-26.0","65553732575bb29198a888d7","655659770f9eae4d14f0705d",2,"135300","Okinawa_small_pos_2_2.jpg",NA,NA,NA,NA,NA,NA,NA,NA,NA,NA,NA,NA,NA,NA,NA,NA,"[]","large",1,"pos",2,21,3,3,2,3,2,1,"93720","38","male","man","","caucasian","","No","",""
"22","5c284ae48e845b0001fc40aa","svTrial","survey",29,1868103,"0.0-2.0-27.0","65553732575bb29198a888d7","655659770f9eae4d14f0705d",2,"73716","Niigata_large_sch_8_1.jpg",NA,NA,NA,NA,NA,NA,NA,NA,NA,NA,NA,NA,NA,NA,NA,NA,"[]","middle",2,"sch",8,22,5,5,4,4,4,1,"93720","38","male","man","","caucasian","","No","",""
"23","5c284ae48e845b0001fc40aa","svTrial","survey",30,1898538,"0.0-2.0-28.0","65553732575bb29198a888d7","655659770f9eae4d14f0705d",2,"30427","Kanagawa_large_sch_3_0.jpg",NA,NA,NA,NA,NA,NA,NA,NA,NA,NA,NA,NA,NA,NA,NA,NA,"[]","small",1,"pos",3,23,5,3,5,4,4,1,"93720","38","male","man","","caucasian","","No","",""
"24","5c284ae48e845b0001fc40aa","svTrial","survey",31,1961982,"0.0-2.0-29.0","65553732575bb29198a888d7","655659770f9eae4d14f0705d",2,"63440","Okinawa_large_sch_8_3.jpg",NA,NA,NA,NA,NA,NA,NA,NA,NA,NA,NA,NA,NA,NA,NA,NA,"[]","middle",1,"sch",8,24,4,4,4,4,4,1,"93720","38","male","man","","caucasian","","No","",""
"25","5c284ae48e845b0001fc40aa","svTrial","survey",33,2309544,"0.0-2.0-31.0","65553732575bb29198a888d7","655659770f9eae4d14f0705d",2,"341930","Niigata_large_pos_8_1.jpg",NA,NA,NA,NA,NA,NA,NA,NA,NA,NA,NA,NA,NA,NA,NA,NA,"[]","middle",2,"pos",8,25,4,3,5,3,3,1,"93720","38","male","man","","caucasian","","No","",""
"26","5c284ae48e845b0001fc40aa","svTrial","survey",34,2394441,"0.0-2.0-32.0","65553732575bb29198a888d7","655659770f9eae4d14f0705d",2,"84893","Toyama_small_sch_4_3.jpg",NA,NA,NA,NA,NA,NA,NA,NA,NA,NA,NA,NA,NA,NA,NA,NA,"[]","middle",2,"sch",4,26,4,3,5,4,3,1,"93720","38","male","man","","caucasian","","No","",""
"27","5c284ae48e845b0001fc40aa","svTrial","survey",35,2485881,"0.0-2.0-33.0","65553732575bb29198a888d7","655659770f9eae4d14f0705d",2,"91441","Toyama_middle_pos_7_0.jpg",NA,NA,NA,NA,NA,NA,NA,NA,NA,NA,NA,NA,NA,NA,NA,NA,"[]","large",2,"sch",7,27,2,1,2,2,2,1,"93720","38","male","man","","caucasian","","No","",""
"28","5c284ae48e845b0001fc40aa","svTrial","survey",36,2599593,"0.0-2.0-34.0","65553732575bb29198a888d7","655659770f9eae4d14f0705d",2,"113708","Hokkaido_small_sch_4_1.jpg",NA,NA,NA,NA,NA,NA,NA,NA,NA,NA,NA,NA,NA,NA,NA,NA,"[]","small",1,"pos",4,28,4,3,3,4,3,1,"93720","38","male","man","","caucasian","","No","",""
"29","5c284ae48e845b0001fc40aa","svTrial","survey",37,2730701,"0.0-2.0-35.0","65553732575bb29198a888d7","655659770f9eae4d14f0705d",2,"131104","Kanagawa_large_sch_4_2.jpg",NA,NA,NA,NA,NA,NA,NA,NA,NA,NA,NA,NA,NA,NA,NA,NA,"[]","middle",1,"sch",4,29,3,2,4,3,3,1,"93720","38","male","man","","caucasian","","No","",""
"30","5c284ae48e845b0001fc40aa","svTrial","survey",38,2742961,"0.0-2.0-36.0","65553732575bb29198a888d7","655659770f9eae4d14f0705d",2,"12256","Niigata_large_sch_4_1.jpg",NA,NA,NA,NA,NA,NA,NA,NA,NA,NA,NA,NA,NA,NA,NA,NA,"[]","small",2,"sch",4,30,4,3,5,4,4,1,"93720","38","male","man","","caucasian","","No","",""
"31","5c284ae48e845b0001fc40aa","svTrial","survey",39,2843802,"0.0-2.0-37.0","65553732575bb29198a888d7","655659770f9eae4d14f0705d",2,"100837","Kanagawa_large_pos_5_2.jpg",NA,NA,NA,NA,NA,NA,NA,NA,NA,NA,NA,NA,NA,NA,NA,NA,"[]","small",1,"sch",5,31,5,3,5,4,4,1,"93720","38","male","man","","caucasian","","No","",""
"32","5c284ae48e845b0001fc40aa","svTrial","survey",40,2860255,"0.0-2.0-38.0","65553732575bb29198a888d7","655659770f9eae4d14f0705d",2,"16448","Hokkaido_large_sch_6_3.jpg",NA,NA,NA,NA,NA,NA,NA,NA,NA,NA,NA,NA,NA,NA,NA,NA,"[]","small",1,"pos",6,32,4,4,4,4,4,1,"93720","38","male","man","","caucasian","","No","",""
"33","5c284ae48e845b0001fc40aa","svTrial","survey",41,2968762,"0.0-2.0-39.0","65553732575bb29198a888d7","655659770f9eae4d14f0705d",2,"108502","Akita_large_sch_3_0.jpg",NA,NA,NA,NA,NA,NA,NA,NA,NA,NA,NA,NA,NA,NA,NA,NA,"[]","small",2,"sch",3,33,4,2,2,3,2,1,"93720","38","male","man","","caucasian","","No","",""
"34","5c284ae48e845b0001fc40aa","svTrial","survey",42,3121041,"0.0-2.0-40.0","65553732575bb29198a888d7","655659770f9eae4d14f0705d",2,"152279","Toyama_small_pos_4_3.jpg",NA,NA,NA,NA,NA,NA,NA,NA,NA,NA,NA,NA,NA,NA,NA,NA,"[]","small",2,"sch",4,34,2,2,2,2,2,1,"93720","38","male","man","","caucasian","","No","",""
"35","5c284ae48e845b0001fc40aa","svTrial","survey",43,3167906,"0.0-2.0-41.0","65553732575bb29198a888d7","655659770f9eae4d14f0705d",2,"46860","Toyama_small_sch_2_2.jpg",NA,NA,NA,NA,NA,NA,NA,NA,NA,NA,NA,NA,NA,NA,NA,NA,"[]","large",2,"pos",2,35,3,3,2,3,3,1,"93720","38","male","man","","caucasian","","No","",""
"36","5c284ae48e845b0001fc40aa","svTrial","survey",44,3291823,"0.0-2.0-42.0","65553732575bb29198a888d7","655659770f9eae4d14f0705d",2,"123914","Kanagawa_small_pos_2_0.jpg",NA,NA,NA,NA,NA,NA,NA,NA,NA,NA,NA,NA,NA,NA,NA,NA,"[]","small",1,"sch",2,36,4,3,3,3,3,1,"93720","38","male","man","","caucasian","","No","",""
"37","5c284ae48e845b0001fc40aa","svTrial","survey",45,3304747,"0.0-2.0-43.0","65553732575bb29198a888d7","655659770f9eae4d14f0705d",2,"12916","Toyama_large_pos_3_0.jpg",NA,NA,NA,NA,NA,NA,NA,NA,NA,NA,NA,NA,NA,NA,NA,NA,"[]","middle",2,"pos",3,37,2,2,4,2,3,1,"93720","38","male","man","","caucasian","","No","",""
"38","5c284ae48e845b0001fc40aa","svTrial","survey",46,3331363,"0.0-2.0-44.0","65553732575bb29198a888d7","655659770f9eae4d14f0705d",2,"26609","Tokyo_small_sch_3_2.jpg",NA,NA,NA,NA,NA,NA,NA,NA,NA,NA,NA,NA,NA,NA,NA,NA,"[]","small",1,"sch",3,38,4,3,4,4,4,1,"93720","38","male","man","","caucasian","","No","",""
"39","5c284ae48e845b0001fc40aa","svTrial","survey",47,3356771,"0.0-2.0-45.0","65553732575bb29198a888d7","655659770f9eae4d14f0705d",2,"25402","Hokkaido_middle_sch_3_3.jpg",NA,NA,NA,NA,NA,NA,NA,NA,NA,NA,NA,NA,NA,NA,NA,NA,"[]","middle",1,"sch",3,39,5,2,3,2,3,1,"93720","38","male","man","","caucasian","","No","",""
"40","5c284ae48e845b0001fc40aa","svTrial","survey",48,3385041,"0.0-2.0-46.0","65553732575bb29198a888d7","655659770f9eae4d14f0705d",2,"28262","Toyama_middle_pos_5_1.jpg",NA,NA,NA,NA,NA,NA,NA,NA,NA,NA,NA,NA,NA,NA,NA,NA,"[]","large",2,"sch",5,40,4,3,3,2,3,1,"93720","38","male","man","","caucasian","","No","",""
"41","5c284ae48e845b0001fc40aa","svTrial","survey",49,3412487,"0.0-2.0-47.0","65553732575bb29198a888d7","655659770f9eae4d14f0705d",2,"27442","Kanagawa_large_sch_6_3.jpg",NA,NA,NA,NA,NA,NA,NA,NA,NA,NA,NA,NA,NA,NA,NA,NA,"[]","middle",1,"pos",6,41,5,2,2,3,3,1,"93720","38","male","man","","caucasian","","No","",""
"42","5c284ae48e845b0001fc40aa","svTrial","survey",50,3548738,"0.0-2.0-48.0","65553732575bb29198a888d7","655659770f9eae4d14f0705d",2,"136247","Okinawa_middle_sch_2_0.jpg",NA,NA,NA,NA,NA,NA,NA,NA,NA,NA,NA,NA,NA,NA,NA,NA,"[]","small",1,"sch",2,42,3,3,3,4,3,1,"93720","38","male","man","","caucasian","","No","",""
"43","5c284ae48e845b0001fc40aa","svTrial","survey",52,3609410,"0.0-2.0-50.0","65553732575bb29198a888d7","655659770f9eae4d14f0705d",2,"53391","Tokyo_large_pos_6_0.jpg",NA,NA,NA,NA,NA,NA,NA,NA,NA,NA,NA,NA,NA,NA,NA,NA,"[]","middle",1,"pos",6,43,1,1,1,1,1,1,"93720","38","male","man","","caucasian","","No","",""
"44","5c284ae48e845b0001fc40aa","svTrial","survey",53,3674710,"0.0-2.0-51.0","65553732575bb29198a888d7","655659770f9eae4d14f0705d",2,"65295","Toyama_large_sch_12_0.jpg",NA,NA,NA,NA,NA,NA,NA,NA,NA,NA,NA,NA,NA,NA,NA,NA,"[]","small",2,"pos",12,44,3,2,3,3,2,1,"93720","38","male","man","","caucasian","","No","",""
"45","5c284ae48e845b0001fc40aa","svTrial","survey",54,3732533,"0.0-2.0-52.0","65553732575bb29198a888d7","655659770f9eae4d14f0705d",2,"57818","Okinawa_large_pos_4_3.jpg",NA,NA,NA,NA,NA,NA,NA,NA,NA,NA,NA,NA,NA,NA,NA,NA,"[]","large",1,"sch",4,45,4,4,5,5,4,1,"93720","38","male","man","","caucasian","","No","",""
"46","5c284ae48e845b0001fc40aa","svTrial","survey",55,3741271,"0.0-2.0-53.0","65553732575bb29198a888d7","655659770f9eae4d14f0705d",2,"8730","Kanagawa_middle_sch_3_3.jpg",NA,NA,NA,NA,NA,NA,NA,NA,NA,NA,NA,NA,NA,NA,NA,NA,"[]","large",1,"sch",3,46,5,5,5,5,5,1,"93720","38","male","man","","caucasian","","No","",""
"47","5c284ae48e845b0001fc40aa","svTrial","survey",56,3785008,"0.0-2.0-54.0","65553732575bb29198a888d7","655659770f9eae4d14f0705d",2,"43733","Akita_large_pos_6_0.jpg",NA,NA,NA,NA,NA,NA,NA,NA,NA,NA,NA,NA,NA,NA,NA,NA,"[]","large",2,"sch",6,47,3,3,4,3,3,1,"93720","38","male","man","","caucasian","","No","",""
"48","5c284ae48e845b0001fc40aa","svTrial","survey",57,3804988,"0.0-2.0-55.0","65553732575bb29198a888d7","655659770f9eae4d14f0705d",2,"19969","Akita_large_pos_8_3.jpg",NA,NA,NA,NA,NA,NA,NA,NA,NA,NA,NA,NA,NA,NA,NA,NA,"[]","middle",2,"pos",8,48,4,4,3,3,4,1,"93720","38","male","man","","caucasian","","No","",""
