"","subject_id","task","trial_type","trial_index","time_elapsed","internal_node_id","study_id","session_id","group","rt","stimulus","width","height","webaudio","browser","browser_version","mobile","os","fullscreen","vsync_rate","webcam","microphone","success","timeout","failed_images","failed_audio","failed_video","accuracy","size","culture","loct","number","document.id","ambiguous","objects","invisible","chaos","complex","passedChecks","zipcode","age","sex","gender","gender-self-describe","ethnicity","ethnicity-self-describe","outsideUS","outsideUS_years","surveyComments"
"1","5c3820ee1ede2b0001155929","svTrial","survey",8,405545,"0.0-2.0-6.0","65553732575bb29198a888d7","65565b8ec02ad6061e3f6e29",3,"130484","Akita_large_pos_9_2.jpg",NA,NA,NA,NA,NA,NA,NA,NA,NA,NA,NA,NA,NA,NA,NA,NA,"[]","small",2,"pos",9,1,2,5,3,4,2,1,"45750","31","female","woman","","caucasian","","No","","It was great! "
"2","5c3820ee1ede2b0001155929","svTrial","survey",9,420535,"0.0-2.0-7.0","65553732575bb29198a888d7","65565b8ec02ad6061e3f6e29",3,"14953","Okinawa_middle_pos_6_2.jpg",NA,NA,NA,NA,NA,NA,NA,NA,NA,NA,NA,NA,NA,NA,NA,NA,"[]","large",1,"pos",6,2,5,3,5,5,5,1,"45750","31","female","woman","","caucasian","","No","","It was great! "
"3","5c3820ee1ede2b0001155929","svTrial","survey",10,431895,"0.0-2.0-8.0","65553732575bb29198a888d7","65565b8ec02ad6061e3f6e29",3,"11328","Okinawa_large_pos_1_0.jpg",NA,NA,NA,NA,NA,NA,NA,NA,NA,NA,NA,NA,NA,NA,NA,NA,"[]","large",1,"sch",1,3,5,1,5,5,4,1,"45750","31","female","woman","","caucasian","","No","","It was great! "
"4","5c3820ee1ede2b0001155929","svTrial","survey",11,504247,"0.0-2.0-9.0","65553732575bb29198a888d7","65565b8ec02ad6061e3f6e29",3,"72321","Toyama_small_sch_3_1.jpg",NA,NA,NA,NA,NA,NA,NA,NA,NA,NA,NA,NA,NA,NA,NA,NA,"[]","large",2,"pos",3,4,5,5,4,4,3,1,"45750","31","female","woman","","caucasian","","No","","It was great! "
"5","5c3820ee1ede2b0001155929","svTrial","survey",12,583268,"0.0-2.0-10.0","65553732575bb29198a888d7","65565b8ec02ad6061e3f6e29",3,"78994","Niigata_large_pos_4_1.jpg",NA,NA,NA,NA,NA,NA,NA,NA,NA,NA,NA,NA,NA,NA,NA,NA,"[]","middle",2,"pos",4,5,4,3,3,3,3,1,"45750","31","female","woman","","caucasian","","No","","It was great! "
"6","5c3820ee1ede2b0001155929","svTrial","survey",13,594718,"0.0-2.0-11.0","65553732575bb29198a888d7","65565b8ec02ad6061e3f6e29",3,"11414","Kanagawa_large_sch_11_3.jpg",NA,NA,NA,NA,NA,NA,NA,NA,NA,NA,NA,NA,NA,NA,NA,NA,"[]","large",1,"sch",11,6,5,2,3,3,3,1,"45750","31","female","woman","","caucasian","","No","","It was great! "
"7","5c3820ee1ede2b0001155929","svTrial","survey",14,625325,"0.0-2.0-12.0","65553732575bb29198a888d7","65565b8ec02ad6061e3f6e29",3,"30578","Hokkaido_middle_sch_1_1.jpg",NA,NA,NA,NA,NA,NA,NA,NA,NA,NA,NA,NA,NA,NA,NA,NA,"[]","small",1,"sch",1,7,2,2,2,1,1,1,"45750","31","female","woman","","caucasian","","No","","It was great! "
"8","5c3820ee1ede2b0001155929","svTrial","survey",15,640257,"0.0-2.0-13.0","65553732575bb29198a888d7","65565b8ec02ad6061e3f6e29",3,"14907","Ishikawa_middle_pos_6_2.jpg",NA,NA,NA,NA,NA,NA,NA,NA,NA,NA,NA,NA,NA,NA,NA,NA,"[]","middle",2,"pos",6,8,3,3,3,2,2,1,"45750","31","female","woman","","caucasian","","No","","It was great! "
"9","5c3820ee1ede2b0001155929","svTrial","survey",16,747131,"0.0-2.0-14.0","65553732575bb29198a888d7","65565b8ec02ad6061e3f6e29",3,"106850","Kanagawa_middle_pos_2_3.jpg",NA,NA,NA,NA,NA,NA,NA,NA,NA,NA,NA,NA,NA,NA,NA,NA,"[]","small",1,"pos",2,9,2,2,2,2,2,1,"45750","31","female","woman","","caucasian","","No","","It was great! "
"10","5c3820ee1ede2b0001155929","svTrial","survey",17,764851,"0.0-2.0-15.0","65553732575bb29198a888d7","65565b8ec02ad6061e3f6e29",3,"17695","Okinawa_middle_pos_4_3.jpg",NA,NA,NA,NA,NA,NA,NA,NA,NA,NA,NA,NA,NA,NA,NA,NA,"[]","small",1,"sch",4,10,2,2,3,3,3,1,"45750","31","female","woman","","caucasian","","No","","It was great! "
"11","5c3820ee1ede2b0001155929","svTrial","survey",18,797814,"0.0-2.0-16.0","65553732575bb29198a888d7","65565b8ec02ad6061e3f6e29",3,"32936","Toyama_large_pos_5_0.jpg",NA,NA,NA,NA,NA,NA,NA,NA,NA,NA,NA,NA,NA,NA,NA,NA,"[]","small",2,"pos",5,11,1,3,1,1,1,1,"45750","31","female","woman","","caucasian","","No","","It was great! "
"12","5c3820ee1ede2b0001155929","svTrial","survey",19,809621,"0.0-2.0-17.0","65553732575bb29198a888d7","65565b8ec02ad6061e3f6e29",3,"11767","Hokkaido_large_sch_3_1.jpg",NA,NA,NA,NA,NA,NA,NA,NA,NA,NA,NA,NA,NA,NA,NA,NA,"[]","small",1,"sch",3,12,1,1,1,1,1,1,"45750","31","female","woman","","caucasian","","No","","It was great! "
"13","5c3820ee1ede2b0001155929","svTrial","survey",20,819501,"0.0-2.0-18.0","65553732575bb29198a888d7","65565b8ec02ad6061e3f6e29",3,"9856","Ishikawa_large_sch_6_2.jpg",NA,NA,NA,NA,NA,NA,NA,NA,NA,NA,NA,NA,NA,NA,NA,NA,"[]","small",2,"sch",6,13,2,2,2,1,1,1,"45750","31","female","woman","","caucasian","","No","","It was great! "
"14","5c3820ee1ede2b0001155929","svTrial","survey",21,895010,"0.0-2.0-19.0","65553732575bb29198a888d7","65565b8ec02ad6061e3f6e29",3,"75482","Kanagawa_small_pos_1_0.jpg",NA,NA,NA,NA,NA,NA,NA,NA,NA,NA,NA,NA,NA,NA,NA,NA,"[]","middle",1,"sch",1,14,3,3,3,3,3,1,"45750","31","female","woman","","caucasian","","No","","It was great! "
"15","5c3820ee1ede2b0001155929","svTrial","survey",22,905695,"0.0-2.0-20.0","65553732575bb29198a888d7","65565b8ec02ad6061e3f6e29",3,"10658","Kanagawa_middle_pos_6_1.jpg",NA,NA,NA,NA,NA,NA,NA,NA,NA,NA,NA,NA,NA,NA,NA,NA,"[]","large",1,"sch",6,15,4,4,4,4,4,1,"45750","31","female","woman","","caucasian","","No","","It was great! "
"16","5c3820ee1ede2b0001155929","svTrial","survey",23,917706,"0.0-2.0-21.0","65553732575bb29198a888d7","65565b8ec02ad6061e3f6e29",3,"11989","Akita_small_sch_1_0.jpg",NA,NA,NA,NA,NA,NA,NA,NA,NA,NA,NA,NA,NA,NA,NA,NA,"[]","middle",2,"sch",1,16,2,3,2,2,2,1,"45750","31","female","woman","","caucasian","","No","","It was great! "
"17","5c3820ee1ede2b0001155929","svTrial","survey",24,967472,"0.0-2.0-22.0","65553732575bb29198a888d7","65565b8ec02ad6061e3f6e29",3,"49738","Hokkaido_middle_sch_6_1.jpg",NA,NA,NA,NA,NA,NA,NA,NA,NA,NA,NA,NA,NA,NA,NA,NA,"[]","small",1,"sch",6,17,2,4,2,3,2,1,"45750","31","female","woman","","caucasian","","No","","It was great! "
"18","5c3820ee1ede2b0001155929","svTrial","survey",25,980912,"0.0-2.0-23.0","65553732575bb29198a888d7","65565b8ec02ad6061e3f6e29",3,"13416","Ishikawa_large_pos_6_3.jpg",NA,NA,NA,NA,NA,NA,NA,NA,NA,NA,NA,NA,NA,NA,NA,NA,"[]","middle",2,"pos",6,18,3,3,3,3,3,1,"45750","31","female","woman","","caucasian","","No","","It was great! "
"19","5c3820ee1ede2b0001155929","svTrial","survey",26,993907,"0.0-2.0-24.0","65553732575bb29198a888d7","65565b8ec02ad6061e3f6e29",3,"12971","Akita_large_sch_7_2.jpg",NA,NA,NA,NA,NA,NA,NA,NA,NA,NA,NA,NA,NA,NA,NA,NA,"[]","large",2,"sch",7,19,1,3,2,2,2,1,"45750","31","female","woman","","caucasian","","No","","It was great! "
"20","5c3820ee1ede2b0001155929","svTrial","survey",28,1017855,"0.0-2.0-26.0","65553732575bb29198a888d7","65565b8ec02ad6061e3f6e29",3,"14352","Niigata_middle_pos_7_2.jpg",NA,NA,NA,NA,NA,NA,NA,NA,NA,NA,NA,NA,NA,NA,NA,NA,"[]","large",2,"sch",7,20,1,1,1,1,1,1,"45750","31","female","woman","","caucasian","","No","","It was great! "
"21","5c3820ee1ede2b0001155929","svTrial","survey",29,1031593,"0.0-2.0-27.0","65553732575bb29198a888d7","65565b8ec02ad6061e3f6e29",3,"13716","Akita_large_sch_1_3.jpg",NA,NA,NA,NA,NA,NA,NA,NA,NA,NA,NA,NA,NA,NA,NA,NA,"[]","small",2,"pos",1,21,2,2,2,3,2,1,"45750","31","female","woman","","caucasian","","No","","It was great! "
"22","5c3820ee1ede2b0001155929","svTrial","survey",30,1057997,"0.0-2.0-28.0","65553732575bb29198a888d7","65565b8ec02ad6061e3f6e29",3,"26378","Hokkaido_large_pos_4_2.jpg",NA,NA,NA,NA,NA,NA,NA,NA,NA,NA,NA,NA,NA,NA,NA,NA,"[]","middle",1,"sch",4,22,3,2,2,2,2,1,"45750","31","female","woman","","caucasian","","No","","It was great! "
"23","5c3820ee1ede2b0001155929","svTrial","survey",31,1075474,"0.0-2.0-29.0","65553732575bb29198a888d7","65565b8ec02ad6061e3f6e29",3,"17451","Hokkaido_middle_pos_1_0.jpg",NA,NA,NA,NA,NA,NA,NA,NA,NA,NA,NA,NA,NA,NA,NA,NA,"[]","small",1,"sch",1,23,2,3,2,2,2,1,"45750","31","female","woman","","caucasian","","No","","It was great! "
"24","5c3820ee1ede2b0001155929","svTrial","survey",32,1086436,"0.0-2.0-30.0","65553732575bb29198a888d7","65565b8ec02ad6061e3f6e29",3,"10938","Toyama_middle_pos_1_1.jpg",NA,NA,NA,NA,NA,NA,NA,NA,NA,NA,NA,NA,NA,NA,NA,NA,"[]","middle",2,"pos",1,24,2,2,2,1,1,1,"45750","31","female","woman","","caucasian","","No","","It was great! "
"25","5c3820ee1ede2b0001155929","svTrial","survey",34,1278938,"0.0-2.0-32.0","65553732575bb29198a888d7","65565b8ec02ad6061e3f6e29",3,"176715","Akita_middle_sch_6_2.jpg",NA,NA,NA,NA,NA,NA,NA,NA,NA,NA,NA,NA,NA,NA,NA,NA,"[]","small",2,"sch",6,25,1,1,1,1,1,1,"45750","31","female","woman","","caucasian","","No","","It was great! "
"26","5c3820ee1ede2b0001155929","svTrial","survey",35,1338899,"0.0-2.0-33.0","65553732575bb29198a888d7","65565b8ec02ad6061e3f6e29",3,"59936","Toyama_large_sch_8_1.jpg",NA,NA,NA,NA,NA,NA,NA,NA,NA,NA,NA,NA,NA,NA,NA,NA,"[]","small",2,"pos",8,26,2,3,3,3,3,1,"45750","31","female","woman","","caucasian","","No","","It was great! "
"27","5c3820ee1ede2b0001155929","svTrial","survey",36,1347741,"0.0-2.0-34.0","65553732575bb29198a888d7","65565b8ec02ad6061e3f6e29",3,"8818","Kanagawa_middle_sch_2_2.jpg",NA,NA,NA,NA,NA,NA,NA,NA,NA,NA,NA,NA,NA,NA,NA,NA,"[]","large",1,"sch",2,27,2,2,2,2,2,1,"45750","31","female","woman","","caucasian","","No","","It was great! "
"28","5c3820ee1ede2b0001155929","svTrial","survey",37,1353954,"0.0-2.0-35.0","65553732575bb29198a888d7","65565b8ec02ad6061e3f6e29",3,"6188","Toyama_large_sch_4_1.jpg",NA,NA,NA,NA,NA,NA,NA,NA,NA,NA,NA,NA,NA,NA,NA,NA,"[]","small",2,"sch",4,28,1,1,1,1,1,1,"45750","31","female","woman","","caucasian","","No","","It was great! "
"29","5c3820ee1ede2b0001155929","svTrial","survey",38,1366180,"0.0-2.0-36.0","65553732575bb29198a888d7","65565b8ec02ad6061e3f6e29",3,"12204","Okinawa_large_sch_2_0.jpg",NA,NA,NA,NA,NA,NA,NA,NA,NA,NA,NA,NA,NA,NA,NA,NA,"[]","small",1,"sch",2,29,3,3,3,3,3,1,"45750","31","female","woman","","caucasian","","No","","It was great! "
"30","5c3820ee1ede2b0001155929","svTrial","survey",39,1379921,"0.0-2.0-37.0","65553732575bb29198a888d7","65565b8ec02ad6061e3f6e29",3,"13718","Akita_large_sch_10_2.jpg",NA,NA,NA,NA,NA,NA,NA,NA,NA,NA,NA,NA,NA,NA,NA,NA,"[]","small",2,"pos",10,30,4,3,3,3,3,1,"45750","31","female","woman","","caucasian","","No","","It was great! "
"31","5c3820ee1ede2b0001155929","svTrial","survey",40,1390139,"0.0-2.0-38.0","65553732575bb29198a888d7","65565b8ec02ad6061e3f6e29",3,"10193","Hokkaido_large_sch_4_0.jpg",NA,NA,NA,NA,NA,NA,NA,NA,NA,NA,NA,NA,NA,NA,NA,NA,"[]","small",1,"sch",4,31,2,2,3,3,3,1,"45750","31","female","woman","","caucasian","","No","","It was great! "
"32","5c3820ee1ede2b0001155929","svTrial","survey",41,1397822,"0.0-2.0-39.0","65553732575bb29198a888d7","65565b8ec02ad6061e3f6e29",3,"7660","Hokkaido_large_sch_11_0.jpg",NA,NA,NA,NA,NA,NA,NA,NA,NA,NA,NA,NA,NA,NA,NA,NA,"[]","large",1,"sch",11,32,1,2,1,1,1,1,"45750","31","female","woman","","caucasian","","No","","It was great! "
"33","5c3820ee1ede2b0001155929","svTrial","survey",42,1406212,"0.0-2.0-40.0","65553732575bb29198a888d7","65565b8ec02ad6061e3f6e29",3,"8369","Tokyo_small_sch_1_3.jpg",NA,NA,NA,NA,NA,NA,NA,NA,NA,NA,NA,NA,NA,NA,NA,NA,"[]","small",1,"sch",1,33,2,2,2,2,2,1,"45750","31","female","woman","","caucasian","","No","","It was great! "
"34","5c3820ee1ede2b0001155929","svTrial","survey",43,1415508,"0.0-2.0-41.0","65553732575bb29198a888d7","65565b8ec02ad6061e3f6e29",3,"9273","Ishikawa_large_pos_7_0.jpg",NA,NA,NA,NA,NA,NA,NA,NA,NA,NA,NA,NA,NA,NA,NA,NA,"[]","large",2,"sch",7,34,1,1,1,1,1,1,"45750","31","female","woman","","caucasian","","No","","It was great! "
"35","5c3820ee1ede2b0001155929","svTrial","survey",44,1426713,"0.0-2.0-42.0","65553732575bb29198a888d7","65565b8ec02ad6061e3f6e29",3,"11182","Niigata_large_pos_9_0.jpg",NA,NA,NA,NA,NA,NA,NA,NA,NA,NA,NA,NA,NA,NA,NA,NA,"[]","small",2,"sch",9,35,1,1,2,1,1,1,"45750","31","female","woman","","caucasian","","No","","It was great! "
"36","5c3820ee1ede2b0001155929","svTrial","survey",45,1433566,"0.0-2.0-43.0","65553732575bb29198a888d7","65565b8ec02ad6061e3f6e29",3,"6829","Ishikawa_large_pos_3_3.jpg",NA,NA,NA,NA,NA,NA,NA,NA,NA,NA,NA,NA,NA,NA,NA,NA,"[]","large",2,"pos",3,36,1,1,1,1,1,1,"45750","31","female","woman","","caucasian","","No","","It was great! "
"37","5c3820ee1ede2b0001155929","svTrial","survey",46,1443804,"0.0-2.0-44.0","65553732575bb29198a888d7","65565b8ec02ad6061e3f6e29",3,"10216","Tokyo_middle_pos_5_1.jpg",NA,NA,NA,NA,NA,NA,NA,NA,NA,NA,NA,NA,NA,NA,NA,NA,"[]","small",1,"sch",5,37,2,3,2,2,2,1,"45750","31","female","woman","","caucasian","","No","","It was great! "
"38","5c3820ee1ede2b0001155929","svTrial","survey",47,1458650,"0.0-2.0-45.0","65553732575bb29198a888d7","65565b8ec02ad6061e3f6e29",3,"14824","Ishikawa_large_pos_5_3.jpg",NA,NA,NA,NA,NA,NA,NA,NA,NA,NA,NA,NA,NA,NA,NA,NA,"[]","large",2,"pos",5,38,2,4,3,2,3,1,"45750","31","female","woman","","caucasian","","No","","It was great! "
"39","5c3820ee1ede2b0001155929","svTrial","survey",48,1468871,"0.0-2.0-46.0","65553732575bb29198a888d7","65565b8ec02ad6061e3f6e29",3,"10200","Tokyo_small_sch_4_2.jpg",NA,NA,NA,NA,NA,NA,NA,NA,NA,NA,NA,NA,NA,NA,NA,NA,"[]","large",1,"pos",4,39,2,3,2,2,3,1,"45750","31","female","woman","","caucasian","","No","","It was great! "
"40","5c3820ee1ede2b0001155929","svTrial","survey",49,1556714,"0.0-2.0-47.0","65553732575bb29198a888d7","65565b8ec02ad6061e3f6e29",3,"87813","Kanagawa_large_pos_7_3.jpg",NA,NA,NA,NA,NA,NA,NA,NA,NA,NA,NA,NA,NA,NA,NA,NA,"[]","small",1,"pos",7,40,3,3,2,2,3,1,"45750","31","female","woman","","caucasian","","No","","It was great! "
"41","5c3820ee1ede2b0001155929","svTrial","survey",50,1562639,"0.0-2.0-48.0","65553732575bb29198a888d7","65565b8ec02ad6061e3f6e29",3,"5900","Kanagawa_large_pos_4_1.jpg",NA,NA,NA,NA,NA,NA,NA,NA,NA,NA,NA,NA,NA,NA,NA,NA,"[]","small",1,"pos",4,41,1,1,1,1,1,1,"45750","31","female","woman","","caucasian","","No","","It was great! "
"42","5c3820ee1ede2b0001155929","svTrial","survey",51,1572583,"0.0-2.0-49.0","65553732575bb29198a888d7","65565b8ec02ad6061e3f6e29",3,"9923","Niigata_middle_pos_1_0.jpg",NA,NA,NA,NA,NA,NA,NA,NA,NA,NA,NA,NA,NA,NA,NA,NA,"[]","middle",2,"pos",1,42,1,1,1,1,1,1,"45750","31","female","woman","","caucasian","","No","","It was great! "
"43","5c3820ee1ede2b0001155929","svTrial","survey",52,1584480,"0.0-2.0-50.0","65553732575bb29198a888d7","65565b8ec02ad6061e3f6e29",3,"11871","Toyama_large_pos_12_2.jpg",NA,NA,NA,NA,NA,NA,NA,NA,NA,NA,NA,NA,NA,NA,NA,NA,"[]","large",2,"sch",12,43,1,1,1,1,1,1,"45750","31","female","woman","","caucasian","","No","","It was great! "
"44","5c3820ee1ede2b0001155929","svTrial","survey",53,1595165,"0.0-2.0-51.0","65553732575bb29198a888d7","65565b8ec02ad6061e3f6e29",3,"10662","Kanagawa_middle_sch_1_2.jpg",NA,NA,NA,NA,NA,NA,NA,NA,NA,NA,NA,NA,NA,NA,NA,NA,"[]","small",1,"sch",1,44,2,3,3,2,2,1,"45750","31","female","woman","","caucasian","","No","","It was great! "
"45","5c3820ee1ede2b0001155929","svTrial","survey",54,1608444,"0.0-2.0-52.0","65553732575bb29198a888d7","65565b8ec02ad6061e3f6e29",3,"13257","Niigata_small_pos_1_3.jpg",NA,NA,NA,NA,NA,NA,NA,NA,NA,NA,NA,NA,NA,NA,NA,NA,"[]","small",2,"pos",1,45,1,2,1,1,2,1,"45750","31","female","woman","","caucasian","","No","","It was great! "
"46","5c3820ee1ede2b0001155929","svTrial","survey",55,1621415,"0.0-2.0-53.0","65553732575bb29198a888d7","65565b8ec02ad6061e3f6e29",3,"12950","Hokkaido_middle_sch_2_2.jpg",NA,NA,NA,NA,NA,NA,NA,NA,NA,NA,NA,NA,NA,NA,NA,NA,"[]","small",1,"pos",2,46,1,2,2,1,1,1,"45750","31","female","woman","","caucasian","","No","","It was great! "
"47","5c3820ee1ede2b0001155929","svTrial","survey",56,1639048,"0.0-2.0-54.0","65553732575bb29198a888d7","65565b8ec02ad6061e3f6e29",3,"17596","Okinawa_small_pos_3_3.jpg",NA,NA,NA,NA,NA,NA,NA,NA,NA,NA,NA,NA,NA,NA,NA,NA,"[]","large",1,"pos",3,47,2,2,2,2,1,1,"45750","31","female","woman","","caucasian","","No","","It was great! "
"48","5c3820ee1ede2b0001155929","svTrial","survey",57,1654548,"0.0-2.0-55.0","65553732575bb29198a888d7","65565b8ec02ad6061e3f6e29",3,"15474","Niigata_large_sch_3_2.jpg",NA,NA,NA,NA,NA,NA,NA,NA,NA,NA,NA,NA,NA,NA,NA,NA,"[]","large",2,"sch",3,48,2,4,3,3,3,1,"45750","31","female","woman","","caucasian","","No","","It was great! "
