"","subject_id","task","trial_type","trial_index","time_elapsed","internal_node_id","study_id","session_id","group","rt","stimulus","width","height","webaudio","browser","browser_version","mobile","os","fullscreen","vsync_rate","webcam","microphone","success","timeout","failed_images","failed_audio","failed_video","accuracy","size","culture","loct","number","document.id","ambiguous","objects","invisible","chaos","complex","passedChecks","zipcode","age","sex","gender","gender-self-describe","ethnicity","ethnicity-self-describe","outsideUS","outsideUS_years","surveyComments"
"1","5ca56b2da3425b001510babd","svTrial","survey",8,118799,"0.0-2.0-6.0","65553732575bb29198a888d7","6556548f6dc288f92ba13e31",5,"40141","Akita_large_pos_1_1.jpg",NA,NA,NA,NA,NA,NA,NA,NA,NA,NA,NA,NA,NA,NA,NA,NA,"[]","large",2,"pos",1,1,4,4,3,4,4,1,"77054","30","female","woman","","african","","No","",""
"2","5ca56b2da3425b001510babd","svTrial","survey",9,155281,"0.0-2.0-7.0","65553732575bb29198a888d7","6556548f6dc288f92ba13e31",5,"36437","Tokyo_large_pos_7_3.jpg",NA,NA,NA,NA,NA,NA,NA,NA,NA,NA,NA,NA,NA,NA,NA,NA,"[]","large",1,"pos",7,2,1,2,1,2,2,1,"77054","30","female","woman","","african","","No","",""
"3","5ca56b2da3425b001510babd","svTrial","survey",10,192614,"0.0-2.0-8.0","65553732575bb29198a888d7","6556548f6dc288f92ba13e31",5,"37303","Kanagawa_middle_sch_5_3.jpg",NA,NA,NA,NA,NA,NA,NA,NA,NA,NA,NA,NA,NA,NA,NA,NA,"[]","large",1,"sch",5,3,2,3,3,2,2,1,"77054","30","female","woman","","african","","No","",""
"4","5ca56b2da3425b001510babd","svTrial","survey",11,225399,"0.0-2.0-9.0","65553732575bb29198a888d7","6556548f6dc288f92ba13e31",5,"32752","Tokyo_small_pos_2_2.jpg",NA,NA,NA,NA,NA,NA,NA,NA,NA,NA,NA,NA,NA,NA,NA,NA,"[]","small",1,"sch",2,4,1,1,1,1,1,1,"77054","30","female","woman","","african","","No","",""
"5","5ca56b2da3425b001510babd","svTrial","survey",12,262875,"0.0-2.0-10.0","65553732575bb29198a888d7","6556548f6dc288f92ba13e31",5,"37446","Akita_large_pos_12_3.jpg",NA,NA,NA,NA,NA,NA,NA,NA,NA,NA,NA,NA,NA,NA,NA,NA,"[]","small",2,"sch",12,5,1,1,1,1,2,1,"77054","30","female","woman","","african","","No","",""
"6","5ca56b2da3425b001510babd","svTrial","survey",13,279811,"0.0-2.0-11.0","65553732575bb29198a888d7","6556548f6dc288f92ba13e31",5,"16909","Akita_small_pos_2_3.jpg",NA,NA,NA,NA,NA,NA,NA,NA,NA,NA,NA,NA,NA,NA,NA,NA,"[]","large",2,"sch",2,6,2,1,2,1,1,1,"77054","30","female","woman","","african","","No","",""
"7","5ca56b2da3425b001510babd","svTrial","survey",14,298595,"0.0-2.0-12.0","65553732575bb29198a888d7","6556548f6dc288f92ba13e31",5,"18756","Hokkaido_large_pos_5_3.jpg",NA,NA,NA,NA,NA,NA,NA,NA,NA,NA,NA,NA,NA,NA,NA,NA,"[]","small",1,"pos",5,7,1,1,1,1,1,1,"77054","30","female","woman","","african","","No","",""
"8","5ca56b2da3425b001510babd","svTrial","survey",15,323235,"0.0-2.0-13.0","65553732575bb29198a888d7","6556548f6dc288f92ba13e31",5,"24615","Kanagawa_large_pos_3_1.jpg",NA,NA,NA,NA,NA,NA,NA,NA,NA,NA,NA,NA,NA,NA,NA,NA,"[]","small",1,"sch",3,8,3,3,4,4,3,1,"77054","30","female","woman","","african","","No","",""
"9","5ca56b2da3425b001510babd","svTrial","survey",16,348689,"0.0-2.0-14.0","65553732575bb29198a888d7","6556548f6dc288f92ba13e31",5,"25425","Toyama_large_pos_9_0.jpg",NA,NA,NA,NA,NA,NA,NA,NA,NA,NA,NA,NA,NA,NA,NA,NA,"[]","middle",2,"sch",9,9,2,1,3,4,3,1,"77054","30","female","woman","","african","","No","",""
"10","5ca56b2da3425b001510babd","svTrial","survey",17,384996,"0.0-2.0-15.0","65553732575bb29198a888d7","6556548f6dc288f92ba13e31",5,"36275","Tokyo_middle_sch_6_0.jpg",NA,NA,NA,NA,NA,NA,NA,NA,NA,NA,NA,NA,NA,NA,NA,NA,"[]","small",1,"sch",6,10,1,4,4,4,4,1,"77054","30","female","woman","","african","","No","",""
"11","5ca56b2da3425b001510babd","svTrial","survey",18,413169,"0.0-2.0-16.0","65553732575bb29198a888d7","6556548f6dc288f92ba13e31",5,"28142","Kanagawa_middle_pos_4_1.jpg",NA,NA,NA,NA,NA,NA,NA,NA,NA,NA,NA,NA,NA,NA,NA,NA,"[]","small",1,"sch",4,11,5,3,5,3,2,1,"77054","30","female","woman","","african","","No","",""
"12","5ca56b2da3425b001510babd","svTrial","survey",19,441436,"0.0-2.0-17.0","65553732575bb29198a888d7","6556548f6dc288f92ba13e31",5,"28243","Toyama_small_sch_1_1.jpg",NA,NA,NA,NA,NA,NA,NA,NA,NA,NA,NA,NA,NA,NA,NA,NA,"[]","small",2,"sch",1,12,1,1,1,2,1,1,"77054","30","female","woman","","african","","No","",""
"13","5ca56b2da3425b001510babd","svTrial","survey",20,469228,"0.0-2.0-18.0","65553732575bb29198a888d7","6556548f6dc288f92ba13e31",5,"27767","Ishikawa_large_pos_10_2.jpg",NA,NA,NA,NA,NA,NA,NA,NA,NA,NA,NA,NA,NA,NA,NA,NA,"[]","small",2,"pos",10,13,3,2,3,3,3,1,"77054","30","female","woman","","african","","No","",""
"14","5ca56b2da3425b001510babd","svTrial","survey",21,489332,"0.0-2.0-19.0","65553732575bb29198a888d7","6556548f6dc288f92ba13e31",5,"20079","Hokkaido_large_sch_2_1.jpg",NA,NA,NA,NA,NA,NA,NA,NA,NA,NA,NA,NA,NA,NA,NA,NA,"[]","small",1,"sch",2,14,1,2,1,1,1,1,"77054","30","female","woman","","african","","No","",""
"15","5ca56b2da3425b001510babd","svTrial","survey",22,508225,"0.0-2.0-20.0","65553732575bb29198a888d7","6556548f6dc288f92ba13e31",5,"18866","Ishikawa_large_sch_4_0.jpg",NA,NA,NA,NA,NA,NA,NA,NA,NA,NA,NA,NA,NA,NA,NA,NA,"[]","middle",2,"sch",4,15,1,2,1,1,1,1,"77054","30","female","woman","","african","","No","",""
"16","5ca56b2da3425b001510babd","svTrial","survey",23,516856,"0.0-2.0-21.0","65553732575bb29198a888d7","6556548f6dc288f92ba13e31",5,"8604","Niigata_small_pos_3_0.jpg",NA,NA,NA,NA,NA,NA,NA,NA,NA,NA,NA,NA,NA,NA,NA,NA,"[]","small",2,"pos",3,16,1,1,1,1,1,1,"77054","30","female","woman","","african","","No","",""
"17","5ca56b2da3425b001510babd","svTrial","survey",24,549451,"0.0-2.0-22.0","65553732575bb29198a888d7","6556548f6dc288f92ba13e31",5,"32565","Okinawa_middle_sch_3_1.jpg",NA,NA,NA,NA,NA,NA,NA,NA,NA,NA,NA,NA,NA,NA,NA,NA,"[]","middle",1,"pos",3,17,4,3,4,3,3,1,"77054","30","female","woman","","african","","No","",""
"18","5ca56b2da3425b001510babd","svTrial","survey",25,573051,"0.0-2.0-23.0","65553732575bb29198a888d7","6556548f6dc288f92ba13e31",5,"23574","Ishikawa_middle_pos_7_3.jpg",NA,NA,NA,NA,NA,NA,NA,NA,NA,NA,NA,NA,NA,NA,NA,NA,"[]","small",2,"sch",7,18,3,3,4,3,2,1,"77054","30","female","woman","","african","","No","",""
"19","5ca56b2da3425b001510babd","svTrial","survey",26,587958,"0.0-2.0-24.0","65553732575bb29198a888d7","6556548f6dc288f92ba13e31",5,"14877","Hokkaido_small_pos_1_1.jpg",NA,NA,NA,NA,NA,NA,NA,NA,NA,NA,NA,NA,NA,NA,NA,NA,"[]","small",1,"pos",1,19,1,1,1,1,1,1,"77054","30","female","woman","","african","","No","",""
"20","5ca56b2da3425b001510babd","svTrial","survey",27,609959,"0.0-2.0-25.0","65553732575bb29198a888d7","6556548f6dc288f92ba13e31",5,"21968","Niigata_middle_pos_6_0.jpg",NA,NA,NA,NA,NA,NA,NA,NA,NA,NA,NA,NA,NA,NA,NA,NA,"[]","small",2,"sch",6,20,1,3,2,1,3,1,"77054","30","female","woman","","african","","No","",""
"21","5ca56b2da3425b001510babd","svTrial","survey",28,633108,"0.0-2.0-26.0","65553732575bb29198a888d7","6556548f6dc288f92ba13e31",5,"23121","Kanagawa_large_sch_8_3.jpg",NA,NA,NA,NA,NA,NA,NA,NA,NA,NA,NA,NA,NA,NA,NA,NA,"[]","small",1,"pos",8,21,3,1,3,3,1,1,"77054","30","female","woman","","african","","No","",""
"22","5ca56b2da3425b001510babd","svTrial","survey",29,655620,"0.0-2.0-27.0","65553732575bb29198a888d7","6556548f6dc288f92ba13e31",5,"22483","Toyama_large_sch_9_1.jpg",NA,NA,NA,NA,NA,NA,NA,NA,NA,NA,NA,NA,NA,NA,NA,NA,"[]","middle",2,"sch",9,22,1,1,1,2,1,1,"77054","30","female","woman","","african","","No","",""
"23","5ca56b2da3425b001510babd","svTrial","survey",30,682063,"0.0-2.0-28.0","65553732575bb29198a888d7","6556548f6dc288f92ba13e31",5,"26417","Tokyo_large_sch_7_1.jpg",NA,NA,NA,NA,NA,NA,NA,NA,NA,NA,NA,NA,NA,NA,NA,NA,"[]","large",1,"pos",7,23,2,1,2,1,1,1,"77054","30","female","woman","","african","","No","",""
"24","5ca56b2da3425b001510babd","svTrial","survey",31,709701,"0.0-2.0-29.0","65553732575bb29198a888d7","6556548f6dc288f92ba13e31",5,"27606","Akita_large_sch_8_0.jpg",NA,NA,NA,NA,NA,NA,NA,NA,NA,NA,NA,NA,NA,NA,NA,NA,"[]","middle",2,"pos",8,24,4,3,4,3,3,1,"77054","30","female","woman","","african","","No","",""
"25","5ca56b2da3425b001510babd","svTrial","survey",33,788689,"0.0-2.0-31.0","65553732575bb29198a888d7","6556548f6dc288f92ba13e31",5,"63192","Niigata_large_pos_1_0.jpg",NA,NA,NA,NA,NA,NA,NA,NA,NA,NA,NA,NA,NA,NA,NA,NA,"[]","middle",2,"pos",1,25,4,2,3,3,2,1,"77054","30","female","woman","","african","","No","",""
"26","5ca56b2da3425b001510babd","svTrial","survey",34,807320,"0.0-2.0-32.0","65553732575bb29198a888d7","6556548f6dc288f92ba13e31",5,"18604","Hokkaido_small_pos_3_2.jpg",NA,NA,NA,NA,NA,NA,NA,NA,NA,NA,NA,NA,NA,NA,NA,NA,"[]","middle",1,"sch",3,26,5,3,4,4,4,1,"77054","30","female","woman","","african","","No","",""
"27","5ca56b2da3425b001510babd","svTrial","survey",35,835240,"0.0-2.0-33.0","65553732575bb29198a888d7","6556548f6dc288f92ba13e31",5,"27894","Ishikawa_large_pos_8_3.jpg",NA,NA,NA,NA,NA,NA,NA,NA,NA,NA,NA,NA,NA,NA,NA,NA,"[]","large",2,"pos",8,27,5,1,3,3,1,1,"77054","30","female","woman","","african","","No","",""
"28","5ca56b2da3425b001510babd","svTrial","survey",36,860481,"0.0-2.0-34.0","65553732575bb29198a888d7","6556548f6dc288f92ba13e31",5,"25213","Akita_large_sch_5_1.jpg",NA,NA,NA,NA,NA,NA,NA,NA,NA,NA,NA,NA,NA,NA,NA,NA,"[]","middle",2,"pos",5,28,4,1,3,3,1,1,"77054","30","female","woman","","african","","No","",""
"29","5ca56b2da3425b001510babd","svTrial","survey",37,877264,"0.0-2.0-35.0","65553732575bb29198a888d7","6556548f6dc288f92ba13e31",5,"16754","Hokkaido_middle_pos_4_0.jpg",NA,NA,NA,NA,NA,NA,NA,NA,NA,NA,NA,NA,NA,NA,NA,NA,"[]","middle",1,"sch",4,29,1,1,2,1,1,1,"77054","30","female","woman","","african","","No","",""
"30","5ca56b2da3425b001510babd","svTrial","survey",39,915367,"0.0-2.0-37.0","65553732575bb29198a888d7","6556548f6dc288f92ba13e31",5,"32044","Ishikawa_small_sch_4_2.jpg",NA,NA,NA,NA,NA,NA,NA,NA,NA,NA,NA,NA,NA,NA,NA,NA,"[]","small",2,"sch",4,30,4,1,3,1,1,1,"77054","30","female","woman","","african","","No","",""
"31","5ca56b2da3425b001510babd","svTrial","survey",40,949187,"0.0-2.0-38.0","65553732575bb29198a888d7","6556548f6dc288f92ba13e31",5,"33796","Tokyo_large_sch_8_3.jpg",NA,NA,NA,NA,NA,NA,NA,NA,NA,NA,NA,NA,NA,NA,NA,NA,"[]","large",1,"sch",8,31,4,1,3,4,3,1,"77054","30","female","woman","","african","","No","",""
"32","5ca56b2da3425b001510babd","svTrial","survey",41,974028,"0.0-2.0-39.0","65553732575bb29198a888d7","6556548f6dc288f92ba13e31",5,"24808","Toyama_large_pos_8_1.jpg",NA,NA,NA,NA,NA,NA,NA,NA,NA,NA,NA,NA,NA,NA,NA,NA,"[]","large",2,"pos",8,32,5,1,5,2,1,1,"77054","30","female","woman","","african","","No","",""
"33","5ca56b2da3425b001510babd","svTrial","survey",42,1009170,"0.0-2.0-40.0","65553732575bb29198a888d7","6556548f6dc288f92ba13e31",5,"35117","Tokyo_middle_pos_3_0.jpg",NA,NA,NA,NA,NA,NA,NA,NA,NA,NA,NA,NA,NA,NA,NA,NA,"[]","middle",1,"pos",3,33,2,1,2,2,1,1,"77054","30","female","woman","","african","","No","",""
"34","5ca56b2da3425b001510babd","svTrial","survey",43,1065533,"0.0-2.0-41.0","65553732575bb29198a888d7","6556548f6dc288f92ba13e31",5,"56337","Kanagawa_middle_sch_8_0.jpg",NA,NA,NA,NA,NA,NA,NA,NA,NA,NA,NA,NA,NA,NA,NA,NA,"[]","small",1,"sch",8,34,5,1,2,3,3,1,"77054","30","female","woman","","african","","No","",""
"35","5ca56b2da3425b001510babd","svTrial","survey",44,1105683,"0.0-2.0-42.0","65553732575bb29198a888d7","6556548f6dc288f92ba13e31",5,"40126","Akita_large_sch_4_0.jpg",NA,NA,NA,NA,NA,NA,NA,NA,NA,NA,NA,NA,NA,NA,NA,NA,"[]","small",2,"pos",4,35,5,3,4,4,3,1,"77054","30","female","woman","","african","","No","",""
"36","5ca56b2da3425b001510babd","svTrial","survey",45,1129865,"0.0-2.0-43.0","65553732575bb29198a888d7","6556548f6dc288f92ba13e31",5,"24154","Ishikawa_small_sch_1_1.jpg",NA,NA,NA,NA,NA,NA,NA,NA,NA,NA,NA,NA,NA,NA,NA,NA,"[]","large",2,"sch",1,36,4,1,3,3,2,1,"77054","30","female","woman","","african","","No","",""
"37","5ca56b2da3425b001510babd","svTrial","survey",46,1155756,"0.0-2.0-44.0","65553732575bb29198a888d7","6556548f6dc288f92ba13e31",5,"25869","Hokkaido_small_sch_3_3.jpg",NA,NA,NA,NA,NA,NA,NA,NA,NA,NA,NA,NA,NA,NA,NA,NA,"[]","small",1,"sch",3,37,1,1,3,3,3,1,"77054","30","female","woman","","african","","No","",""
"38","5ca56b2da3425b001510babd","svTrial","survey",47,1181282,"0.0-2.0-45.0","65553732575bb29198a888d7","6556548f6dc288f92ba13e31",5,"25502","Kanagawa_large_sch_5_0.jpg",NA,NA,NA,NA,NA,NA,NA,NA,NA,NA,NA,NA,NA,NA,NA,NA,"[]","middle",1,"pos",5,38,4,2,3,2,1,1,"77054","30","female","woman","","african","","No","",""
"39","5ca56b2da3425b001510babd","svTrial","survey",48,1202845,"0.0-2.0-46.0","65553732575bb29198a888d7","6556548f6dc288f92ba13e31",5,"21514","Akita_large_pos_11_2.jpg",NA,NA,NA,NA,NA,NA,NA,NA,NA,NA,NA,NA,NA,NA,NA,NA,"[]","small",2,"sch",11,39,5,4,5,3,3,1,"77054","30","female","woman","","african","","No","",""
"40","5ca56b2da3425b001510babd","svTrial","survey",49,1229920,"0.0-2.0-47.0","65553732575bb29198a888d7","6556548f6dc288f92ba13e31",5,"27045","Toyama_large_pos_4_0.jpg",NA,NA,NA,NA,NA,NA,NA,NA,NA,NA,NA,NA,NA,NA,NA,NA,"[]","small",2,"sch",4,40,1,3,3,5,3,1,"77054","30","female","woman","","african","","No","",""
"41","5ca56b2da3425b001510babd","svTrial","survey",50,1283290,"0.0-2.0-48.0","65553732575bb29198a888d7","6556548f6dc288f92ba13e31",5,"53339","Kanagawa_small_sch_1_1.jpg",NA,NA,NA,NA,NA,NA,NA,NA,NA,NA,NA,NA,NA,NA,NA,NA,"[]","large",1,"sch",1,41,NA,NA,NA,NA,NA,1,"77054","30","female","woman","","african","","No","",""
"42","5ca56b2da3425b001510babd","svTrial","survey",51,1303256,"0.0-2.0-49.0","65553732575bb29198a888d7","6556548f6dc288f92ba13e31",5,"19943","Niigata_large_pos_3_0.jpg",NA,NA,NA,NA,NA,NA,NA,NA,NA,NA,NA,NA,NA,NA,NA,NA,"[]","large",2,"pos",3,42,4,1,2,1,1,1,"77054","30","female","woman","","african","","No","",""
"43","5ca56b2da3425b001510babd","svTrial","survey",52,1326542,"0.0-2.0-50.0","65553732575bb29198a888d7","6556548f6dc288f92ba13e31",5,"23259","Tokyo_large_pos_2_3.jpg",NA,NA,NA,NA,NA,NA,NA,NA,NA,NA,NA,NA,NA,NA,NA,NA,"[]","small",1,"sch",2,43,2,3,1,4,3,1,"77054","30","female","woman","","african","","No","",""
"44","5ca56b2da3425b001510babd","svTrial","survey",53,1338626,"0.0-2.0-51.0","65553732575bb29198a888d7","6556548f6dc288f92ba13e31",5,"12057","Hokkaido_small_sch_2_3.jpg",NA,NA,NA,NA,NA,NA,NA,NA,NA,NA,NA,NA,NA,NA,NA,NA,"[]","small",1,"pos",2,44,1,1,1,1,1,1,"77054","30","female","woman","","african","","No","",""
"45","5ca56b2da3425b001510babd","svTrial","survey",54,1362697,"0.0-2.0-52.0","65553732575bb29198a888d7","6556548f6dc288f92ba13e31",5,"24043","Toyama_middle_sch_1_0.jpg",NA,NA,NA,NA,NA,NA,NA,NA,NA,NA,NA,NA,NA,NA,NA,NA,"[]","large",2,"pos",1,45,1,1,1,1,1,1,"77054","30","female","woman","","african","","No","",""
"46","5ca56b2da3425b001510babd","svTrial","survey",55,1383979,"0.0-2.0-53.0","65553732575bb29198a888d7","6556548f6dc288f92ba13e31",5,"21250","Kanagawa_small_sch_3_0.jpg",NA,NA,NA,NA,NA,NA,NA,NA,NA,NA,NA,NA,NA,NA,NA,NA,"[]","small",1,"pos",3,46,3,1,2,2,1,1,"77054","30","female","woman","","african","","No","",""
"47","5ca56b2da3425b001510babd","svTrial","survey",56,1404117,"0.0-2.0-54.0","65553732575bb29198a888d7","6556548f6dc288f92ba13e31",5,"20110","Okinawa_large_sch_4_2.jpg",NA,NA,NA,NA,NA,NA,NA,NA,NA,NA,NA,NA,NA,NA,NA,NA,"[]","middle",1,"pos",4,47,2,1,2,2,2,1,"77054","30","female","woman","","african","","No","",""
"48","5ca56b2da3425b001510babd","svTrial","survey",57,1414711,"0.0-2.0-55.0","65553732575bb29198a888d7","6556548f6dc288f92ba13e31",5,"10569","Akita_middle_sch_1_1.jpg",NA,NA,NA,NA,NA,NA,NA,NA,NA,NA,NA,NA,NA,NA,NA,NA,"[]","middle",2,"pos",1,48,1,1,1,1,2,1,"77054","30","female","woman","","african","","No","",""
