"","subject_id","task","trial_type","trial_index","time_elapsed","internal_node_id","study_id","session_id","group","rt","stimulus","width","height","webaudio","browser","browser_version","mobile","os","fullscreen","vsync_rate","webcam","microphone","success","timeout","failed_images","failed_audio","failed_video","accuracy","size","culture","loct","number","document.id","ambiguous","objects","invisible","chaos","complex","passedChecks","zipcode","age","sex","gender","gender-self-describe","ethnicity","ethnicity-self-describe","outsideUS","outsideUS_years","surveyComments"
"1","5d380f164803980016b2210d","svTrial","survey",8,1421289,"0.0-2.0-6.0","65553732575bb29198a888d7","65565a9c50bd2d6efb791128",8,"26469","Tokyo_large_sch_1_2.jpg",NA,NA,NA,NA,NA,NA,NA,NA,NA,NA,NA,NA,NA,NA,NA,NA,"[]","middle",1,"pos",1,1,3,3,5,5,5,1,"75040","25","female","woman","","african","","No","",""
"2","5d380f164803980016b2210d","svTrial","survey",9,1536841,"0.0-2.0-7.0","65553732575bb29198a888d7","65565a9c50bd2d6efb791128",8,"115391","Toyama_middle_sch_6_3.jpg",NA,NA,NA,NA,NA,NA,NA,NA,NA,NA,NA,NA,NA,NA,NA,NA,"[]","large",2,"pos",6,2,3,2,1,3,2,1,"75040","25","female","woman","","african","","No","",""
"3","5d380f164803980016b2210d","svTrial","survey",10,1766063,"0.0-2.0-8.0","65553732575bb29198a888d7","65565a9c50bd2d6efb791128",8,"229118","Niigata_middle_sch_6_3.jpg",NA,NA,NA,NA,NA,NA,NA,NA,NA,NA,NA,NA,NA,NA,NA,NA,"[]","large",2,"sch",6,3,1,3,2,2,4,1,"75040","25","female","woman","","african","","No","",""
"4","5d380f164803980016b2210d","svTrial","survey",11,1970561,"0.0-2.0-9.0","65553732575bb29198a888d7","65565a9c50bd2d6efb791128",8,"204414","Niigata_small_sch_3_3.jpg",NA,NA,NA,NA,NA,NA,NA,NA,NA,NA,NA,NA,NA,NA,NA,NA,"[]","middle",2,"sch",3,4,2,2,3,2,3,1,"75040","25","female","woman","","african","","No","",""
"5","5d380f164803980016b2210d","svTrial","survey",12,1992416,"0.0-2.0-10.0","65553732575bb29198a888d7","65565a9c50bd2d6efb791128",8,"21729","Okinawa_small_sch_2_3.jpg",NA,NA,NA,NA,NA,NA,NA,NA,NA,NA,NA,NA,NA,NA,NA,NA,"[]","middle",1,"sch",2,5,3,3,4,4,5,1,"75040","25","female","woman","","african","","No","",""
"6","5d380f164803980016b2210d","svTrial","survey",13,2063646,"0.0-2.0-11.0","65553732575bb29198a888d7","65565a9c50bd2d6efb791128",8,"71151","Toyama_large_sch_6_3.jpg",NA,NA,NA,NA,NA,NA,NA,NA,NA,NA,NA,NA,NA,NA,NA,NA,"[]","middle",2,"sch",6,6,3,4,1,3,3,1,"75040","25","female","woman","","african","","No","",""
"7","5d380f164803980016b2210d","svTrial","survey",14,2126127,"0.0-2.0-12.0","65553732575bb29198a888d7","65565a9c50bd2d6efb791128",8,"62406","Okinawa_middle_sch_5_1.jpg",NA,NA,NA,NA,NA,NA,NA,NA,NA,NA,NA,NA,NA,NA,NA,NA,"[]","small",1,"sch",5,7,1,2,1,1,1,1,"75040","25","female","woman","","african","","No","",""
"8","5d380f164803980016b2210d","svTrial","survey",15,2376800,"0.0-2.0-13.0","65553732575bb29198a888d7","65565a9c50bd2d6efb791128",8,"250602","Okinawa_large_pos_11_2.jpg",NA,NA,NA,NA,NA,NA,NA,NA,NA,NA,NA,NA,NA,NA,NA,NA,"[]","large",1,"pos",11,8,2,1,3,2,3,1,"75040","25","female","woman","","african","","No","",""
"9","5d380f164803980016b2210d","svTrial","survey",16,2395197,"0.0-2.0-14.0","65553732575bb29198a888d7","65565a9c50bd2d6efb791128",8,"18321","Toyama_middle_pos_3_0.jpg",NA,NA,NA,NA,NA,NA,NA,NA,NA,NA,NA,NA,NA,NA,NA,NA,"[]","large",2,"pos",3,9,1,2,1,2,1,1,"75040","25","female","woman","","african","","No","",""
"10","5d380f164803980016b2210d","svTrial","survey",17,2601006,"0.0-2.0-15.0","65553732575bb29198a888d7","65565a9c50bd2d6efb791128",8,"205731","Niigata_middle_pos_2_3.jpg",NA,NA,NA,NA,NA,NA,NA,NA,NA,NA,NA,NA,NA,NA,NA,NA,"[]","large",2,"pos",2,10,1,2,1,1,1,1,"75040","25","female","woman","","african","","No","",""
"11","5d380f164803980016b2210d","svTrial","survey",18,2612170,"0.0-2.0-16.0","65553732575bb29198a888d7","65565a9c50bd2d6efb791128",8,"11082","Ishikawa_large_pos_12_1.jpg",NA,NA,NA,NA,NA,NA,NA,NA,NA,NA,NA,NA,NA,NA,NA,NA,"[]","small",2,"sch",12,11,1,2,1,1,2,1,"75040","25","female","woman","","african","","No","",""
"12","5d380f164803980016b2210d","svTrial","survey",19,2667615,"0.0-2.0-17.0","65553732575bb29198a888d7","65565a9c50bd2d6efb791128",8,"55375","Okinawa_large_sch_10_2.jpg",NA,NA,NA,NA,NA,NA,NA,NA,NA,NA,NA,NA,NA,NA,NA,NA,"[]","large",1,"sch",10,12,2,2,2,1,1,1,"75040","25","female","woman","","african","","No","",""
"13","5d380f164803980016b2210d","svTrial","survey",20,2738692,"0.0-2.0-18.0","65553732575bb29198a888d7","65565a9c50bd2d6efb791128",8,"70992","Tokyo_large_sch_5_0.jpg",NA,NA,NA,NA,NA,NA,NA,NA,NA,NA,NA,NA,NA,NA,NA,NA,"[]","large",1,"sch",5,13,3,3,4,3,4,1,"75040","25","female","woman","","african","","No","",""
"14","5d380f164803980016b2210d","svTrial","survey",21,2756547,"0.0-2.0-19.0","65553732575bb29198a888d7","65565a9c50bd2d6efb791128",8,"17759","Ishikawa_middle_pos_4_1.jpg",NA,NA,NA,NA,NA,NA,NA,NA,NA,NA,NA,NA,NA,NA,NA,NA,"[]","large",2,"sch",4,14,1,1,1,1,1,1,"75040","25","female","woman","","african","","No","",""
"15","5d380f164803980016b2210d","svTrial","survey",22,2771371,"0.0-2.0-20.0","65553732575bb29198a888d7","65565a9c50bd2d6efb791128",8,"14746","Akita_middle_pos_3_0.jpg",NA,NA,NA,NA,NA,NA,NA,NA,NA,NA,NA,NA,NA,NA,NA,NA,"[]","middle",2,"pos",3,15,3,4,3,3,4,1,"75040","25","female","woman","","african","","No","",""
"16","5d380f164803980016b2210d","svTrial","survey",23,2820186,"0.0-2.0-21.0","65553732575bb29198a888d7","65565a9c50bd2d6efb791128",8,"48733","Kanagawa_large_pos_2_1.jpg",NA,NA,NA,NA,NA,NA,NA,NA,NA,NA,NA,NA,NA,NA,NA,NA,"[]","small",1,"pos",2,16,3,3,4,4,5,1,"75040","25","female","woman","","african","","No","",""
"17","5d380f164803980016b2210d","svTrial","survey",24,2899477,"0.0-2.0-22.0","65553732575bb29198a888d7","65565a9c50bd2d6efb791128",8,"79220","Tokyo_middle_pos_1_1.jpg",NA,NA,NA,NA,NA,NA,NA,NA,NA,NA,NA,NA,NA,NA,NA,NA,"[]","large",1,"sch",1,17,3,3,5,3,4,1,"75040","25","female","woman","","african","","No","",""
"18","5d380f164803980016b2210d","svTrial","survey",25,2916248,"0.0-2.0-23.0","65553732575bb29198a888d7","65565a9c50bd2d6efb791128",8,"16690","Okinawa_small_pos_1_2.jpg",NA,NA,NA,NA,NA,NA,NA,NA,NA,NA,NA,NA,NA,NA,NA,NA,"[]","large",1,"sch",1,18,2,3,2,2,2,1,"75040","25","female","woman","","african","","No","",""
"19","5d380f164803980016b2210d","svTrial","survey",26,2932608,"0.0-2.0-24.0","65553732575bb29198a888d7","65565a9c50bd2d6efb791128",8,"16290","Kanagawa_large_pos_11_0.jpg",NA,NA,NA,NA,NA,NA,NA,NA,NA,NA,NA,NA,NA,NA,NA,NA,"[]","large",1,"pos",11,19,3,3,5,3,5,1,"75040","25","female","woman","","african","","No","",""
"20","5d380f164803980016b2210d","svTrial","survey",27,2978306,"0.0-2.0-25.0","65553732575bb29198a888d7","65565a9c50bd2d6efb791128",8,"45626","Toyama_middle_pos_6_3.jpg",NA,NA,NA,NA,NA,NA,NA,NA,NA,NA,NA,NA,NA,NA,NA,NA,"[]","small",2,"pos",6,20,3,4,4,3,4,1,"75040","25","female","woman","","african","","No","",""
"21","5d380f164803980016b2210d","svTrial","survey",28,2991715,"0.0-2.0-26.0","65553732575bb29198a888d7","65565a9c50bd2d6efb791128",8,"13329","Tokyo_middle_pos_2_2.jpg",NA,NA,NA,NA,NA,NA,NA,NA,NA,NA,NA,NA,NA,NA,NA,NA,"[]","large",1,"pos",2,21,3,3,4,3,3,1,"75040","25","female","woman","","african","","No","",""
"22","5d380f164803980016b2210d","svTrial","survey",29,3008213,"0.0-2.0-27.0","65553732575bb29198a888d7","65565a9c50bd2d6efb791128",8,"16398","Akita_middle_pos_2_0.jpg",NA,NA,NA,NA,NA,NA,NA,NA,NA,NA,NA,NA,NA,NA,NA,NA,"[]","large",2,"sch",2,22,2,2,1,2,2,1,"75040","25","female","woman","","african","","No","",""
"23","5d380f164803980016b2210d","svTrial","survey",31,3153501,"0.0-2.0-29.0","65553732575bb29198a888d7","65565a9c50bd2d6efb791128",8,"37881","Toyama_large_pos_2_1.jpg",NA,NA,NA,NA,NA,NA,NA,NA,NA,NA,NA,NA,NA,NA,NA,NA,"[]","large",2,"sch",2,23,2,5,3,4,5,1,"75040","25","female","woman","","african","","No","",""
"24","5d380f164803980016b2210d","svTrial","survey",32,3170331,"0.0-2.0-30.0","65553732575bb29198a888d7","65565a9c50bd2d6efb791128",8,"16754","Hokkaido_large_pos_7_3.jpg",NA,NA,NA,NA,NA,NA,NA,NA,NA,NA,NA,NA,NA,NA,NA,NA,"[]","middle",1,"sch",7,24,1,2,1,1,1,1,"75040","25","female","woman","","african","","No","",""
"25","5d380f164803980016b2210d","svTrial","survey",34,3196534,"0.0-2.0-32.0","65553732575bb29198a888d7","65565a9c50bd2d6efb791128",8,"16865","Ishikawa_small_sch_2_1.jpg",NA,NA,NA,NA,NA,NA,NA,NA,NA,NA,NA,NA,NA,NA,NA,NA,"[]","large",2,"sch",2,25,1,1,1,1,1,1,"75040","25","female","woman","","african","","No","",""
"26","5d380f164803980016b2210d","svTrial","survey",35,3211596,"0.0-2.0-33.0","65553732575bb29198a888d7","65565a9c50bd2d6efb791128",8,"14980","Okinawa_middle_pos_7_0.jpg",NA,NA,NA,NA,NA,NA,NA,NA,NA,NA,NA,NA,NA,NA,NA,NA,"[]","middle",1,"sch",7,26,2,4,4,4,5,1,"75040","25","female","woman","","african","","No","",""
"27","5d380f164803980016b2210d","svTrial","survey",36,3227752,"0.0-2.0-34.0","65553732575bb29198a888d7","65565a9c50bd2d6efb791128",8,"16078","Akita_large_pos_4_0.jpg",NA,NA,NA,NA,NA,NA,NA,NA,NA,NA,NA,NA,NA,NA,NA,NA,"[]","middle",2,"pos",4,27,2,3,2,3,3,1,"75040","25","female","woman","","african","","No","",""
"28","5d380f164803980016b2210d","svTrial","survey",37,3250746,"0.0-2.0-35.0","65553732575bb29198a888d7","65565a9c50bd2d6efb791128",8,"22916","Kanagawa_small_pos_4_3.jpg",NA,NA,NA,NA,NA,NA,NA,NA,NA,NA,NA,NA,NA,NA,NA,NA,"[]","middle",1,"pos",4,28,3,5,5,5,5,1,"75040","25","female","woman","","african","","No","",""
"29","5d380f164803980016b2210d","svTrial","survey",38,3262258,"0.0-2.0-36.0","65553732575bb29198a888d7","65565a9c50bd2d6efb791128",8,"11419","Kanagawa_large_sch_10_0.jpg",NA,NA,NA,NA,NA,NA,NA,NA,NA,NA,NA,NA,NA,NA,NA,NA,"[]","large",1,"pos",10,29,4,5,4,5,5,1,"75040","25","female","woman","","african","","No","",""
"30","5d380f164803980016b2210d","svTrial","survey",39,3276404,"0.0-2.0-37.0","65553732575bb29198a888d7","65565a9c50bd2d6efb791128",8,"14075","Hokkaido_middle_pos_7_2.jpg",NA,NA,NA,NA,NA,NA,NA,NA,NA,NA,NA,NA,NA,NA,NA,NA,"[]","small",1,"sch",7,30,3,3,3,2,3,1,"75040","25","female","woman","","african","","No","",""
"31","5d380f164803980016b2210d","svTrial","survey",40,3290073,"0.0-2.0-38.0","65553732575bb29198a888d7","65565a9c50bd2d6efb791128",8,"13569","Niigata_middle_pos_4_1.jpg",NA,NA,NA,NA,NA,NA,NA,NA,NA,NA,NA,NA,NA,NA,NA,NA,"[]","small",2,"pos",4,31,3,2,3,3,3,1,"75040","25","female","woman","","african","","No","",""
"32","5d380f164803980016b2210d","svTrial","survey",41,3345742,"0.0-2.0-39.0","65553732575bb29198a888d7","65565a9c50bd2d6efb791128",8,"55589","Tokyo_large_pos_8_3.jpg",NA,NA,NA,NA,NA,NA,NA,NA,NA,NA,NA,NA,NA,NA,NA,NA,"[]","small",1,"sch",8,32,3,5,4,5,5,1,"75040","25","female","woman","","african","","No","",""
"33","5d380f164803980016b2210d","svTrial","survey",42,3357280,"0.0-2.0-40.0","65553732575bb29198a888d7","65565a9c50bd2d6efb791128",8,"11479","Kanagawa_middle_sch_7_3.jpg",NA,NA,NA,NA,NA,NA,NA,NA,NA,NA,NA,NA,NA,NA,NA,NA,"[]","large",1,"pos",7,33,3,3,3,4,4,1,"75040","25","female","woman","","african","","No","",""
"34","5d380f164803980016b2210d","svTrial","survey",43,3368594,"0.0-2.0-41.0","65553732575bb29198a888d7","65565a9c50bd2d6efb791128",8,"11233","Toyama_middle_sch_4_2.jpg",NA,NA,NA,NA,NA,NA,NA,NA,NA,NA,NA,NA,NA,NA,NA,NA,"[]","middle",2,"sch",4,34,3,3,4,4,4,1,"75040","25","female","woman","","african","","No","",""
"35","5d380f164803980016b2210d","svTrial","survey",44,3379907,"0.0-2.0-42.0","65553732575bb29198a888d7","65565a9c50bd2d6efb791128",8,"11246","Ishikawa_middle_pos_8_1.jpg",NA,NA,NA,NA,NA,NA,NA,NA,NA,NA,NA,NA,NA,NA,NA,NA,"[]","small",2,"sch",8,35,3,4,3,4,4,1,"75040","25","female","woman","","african","","No","",""
"36","5d380f164803980016b2210d","svTrial","survey",45,3392970,"0.0-2.0-43.0","65553732575bb29198a888d7","65565a9c50bd2d6efb791128",8,"12995","Toyama_small_pos_1_2.jpg",NA,NA,NA,NA,NA,NA,NA,NA,NA,NA,NA,NA,NA,NA,NA,NA,"[]","small",2,"pos",1,36,1,2,1,1,1,1,"75040","25","female","woman","","african","","No","",""
"37","5d380f164803980016b2210d","svTrial","survey",46,3435112,"0.0-2.0-44.0","65553732575bb29198a888d7","65565a9c50bd2d6efb791128",8,"42071","Ishikawa_large_pos_9_2.jpg",NA,NA,NA,NA,NA,NA,NA,NA,NA,NA,NA,NA,NA,NA,NA,NA,"[]","large",2,"pos",9,37,3,5,3,5,5,1,"75040","25","female","woman","","african","","No","",""
"38","5d380f164803980016b2210d","svTrial","survey",47,3447402,"0.0-2.0-45.0","65553732575bb29198a888d7","65565a9c50bd2d6efb791128",8,"12219","Akita_middle_pos_7_1.jpg",NA,NA,NA,NA,NA,NA,NA,NA,NA,NA,NA,NA,NA,NA,NA,NA,"[]","middle",2,"pos",7,38,1,1,2,2,1,1,"75040","25","female","woman","","african","","No","",""
"39","5d380f164803980016b2210d","svTrial","survey",48,3498940,"0.0-2.0-46.0","65553732575bb29198a888d7","65565a9c50bd2d6efb791128",8,"51470","Toyama_large_sch_2_3.jpg",NA,NA,NA,NA,NA,NA,NA,NA,NA,NA,NA,NA,NA,NA,NA,NA,"[]","large",2,"pos",2,39,4,4,5,5,5,1,"75040","25","female","woman","","african","","No","",""
"40","5d380f164803980016b2210d","svTrial","survey",49,3509861,"0.0-2.0-47.0","65553732575bb29198a888d7","65565a9c50bd2d6efb791128",8,"10852","Akita_small_sch_2_1.jpg",NA,NA,NA,NA,NA,NA,NA,NA,NA,NA,NA,NA,NA,NA,NA,NA,"[]","small",2,"pos",2,40,4,3,4,3,4,1,"75040","25","female","woman","","african","","No","",""
"41","5d380f164803980016b2210d","svTrial","survey",50,3521904,"0.0-2.0-48.0","65553732575bb29198a888d7","65565a9c50bd2d6efb791128",8,"11968","Tokyo_large_pos_9_2.jpg",NA,NA,NA,NA,NA,NA,NA,NA,NA,NA,NA,NA,NA,NA,NA,NA,"[]","large",1,"pos",9,41,3,3,4,3,4,1,"75040","25","female","woman","","african","","No","",""
"42","5d380f164803980016b2210d","svTrial","survey",51,3533869,"0.0-2.0-49.0","65553732575bb29198a888d7","65565a9c50bd2d6efb791128",8,"11896","Kanagawa_large_pos_6_2.jpg",NA,NA,NA,NA,NA,NA,NA,NA,NA,NA,NA,NA,NA,NA,NA,NA,"[]","small",1,"sch",6,42,1,4,2,2,2,1,"75040","25","female","woman","","african","","No","",""
"43","5d380f164803980016b2210d","svTrial","survey",52,3544449,"0.0-2.0-50.0","65553732575bb29198a888d7","65565a9c50bd2d6efb791128",8,"10508","Okinawa_middle_pos_8_3.jpg",NA,NA,NA,NA,NA,NA,NA,NA,NA,NA,NA,NA,NA,NA,NA,NA,"[]","small",1,"pos",8,43,1,2,2,2,2,1,"75040","25","female","woman","","african","","No","",""
"44","5d380f164803980016b2210d","svTrial","survey",53,3632649,"0.0-2.0-51.0","65553732575bb29198a888d7","65565a9c50bd2d6efb791128",8,"88128","Tokyo_small_sch_2_2.jpg",NA,NA,NA,NA,NA,NA,NA,NA,NA,NA,NA,NA,NA,NA,NA,NA,"[]","small",1,"pos",2,44,3,3,4,4,5,1,"75040","25","female","woman","","african","","No","",""
"45","5d380f164803980016b2210d","svTrial","survey",54,3655718,"0.0-2.0-52.0","65553732575bb29198a888d7","65565a9c50bd2d6efb791128",8,"22991","Niigata_large_pos_2_1.jpg",NA,NA,NA,NA,NA,NA,NA,NA,NA,NA,NA,NA,NA,NA,NA,NA,"[]","middle",2,"pos",2,45,NA,NA,NA,NA,NA,1,"75040","25","female","woman","","african","","No","",""
"46","5d380f164803980016b2210d","svTrial","survey",55,3667937,"0.0-2.0-53.0","65553732575bb29198a888d7","65565a9c50bd2d6efb791128",8,"12134","Ishikawa_large_sch_11_3.jpg",NA,NA,NA,NA,NA,NA,NA,NA,NA,NA,NA,NA,NA,NA,NA,NA,"[]","small",2,"pos",11,46,3,4,4,3,5,1,"75040","25","female","woman","","african","","No","",""
"47","5d380f164803980016b2210d","svTrial","survey",56,3742709,"0.0-2.0-54.0","65553732575bb29198a888d7","65565a9c50bd2d6efb791128",8,"74698","Hokkaido_large_sch_10_1.jpg",NA,NA,NA,NA,NA,NA,NA,NA,NA,NA,NA,NA,NA,NA,NA,NA,"[]","large",1,"pos",10,47,2,2,3,2,2,1,"75040","25","female","woman","","african","","No","",""
"48","5d380f164803980016b2210d","svTrial","survey",57,3801871,"0.0-2.0-55.0","65553732575bb29198a888d7","65565a9c50bd2d6efb791128",8,"59086","Hokkaido_large_pos_2_0.jpg",NA,NA,NA,NA,NA,NA,NA,NA,NA,NA,NA,NA,NA,NA,NA,NA,"[]","small",1,"sch",2,48,2,1,3,2,2,1,"75040","25","female","woman","","african","","No","",""
