"","subject_id","task","trial_type","trial_index","time_elapsed","internal_node_id","study_id","session_id","group","rt","stimulus","width","height","webaudio","browser","browser_version","mobile","os","fullscreen","vsync_rate","webcam","microphone","success","timeout","failed_images","failed_audio","failed_video","accuracy","size","culture","loct","number","document.id","ambiguous","objects","invisible","chaos","complex","passedChecks","zipcode","age","sex","gender","gender-self-describe","ethnicity","ethnicity-self-describe","outsideUS","outsideUS_years","surveyComments"
"1","5d49fbb01da04c001a407042","svTrial","survey",8,80015,"0.0-2.0-6.0","65553732575bb29198a888d7","65566dc8d643c3a98feb1485",3,"15967","Okinawa_large_pos_1_2.jpg",NA,NA,NA,NA,NA,NA,NA,NA,NA,NA,NA,NA,NA,NA,NA,NA,"[]","large",1,"sch",1,1,3,4,3,4,4,1,"31792","26","female","woman","","african","","No","",""
"2","5d49fbb01da04c001a407042","svTrial","survey",9,93490,"0.0-2.0-7.0","65553732575bb29198a888d7","65566dc8d643c3a98feb1485",3,"13455","Kanagawa_middle_sch_2_3.jpg",NA,NA,NA,NA,NA,NA,NA,NA,NA,NA,NA,NA,NA,NA,NA,NA,"[]","large",1,"sch",2,2,2,4,4,3,3,1,"31792","26","female","woman","","african","","No","",""
"3","5d49fbb01da04c001a407042","svTrial","survey",10,114095,"0.0-2.0-8.0","65553732575bb29198a888d7","65566dc8d643c3a98feb1485",3,"20588","Ishikawa_large_sch_6_2.jpg",NA,NA,NA,NA,NA,NA,NA,NA,NA,NA,NA,NA,NA,NA,NA,NA,"[]","small",2,"sch",6,3,2,2,3,2,2,1,"31792","26","female","woman","","african","","No","",""
"4","5d49fbb01da04c001a407042","svTrial","survey",11,131396,"0.0-2.0-9.0","65553732575bb29198a888d7","65566dc8d643c3a98feb1485",3,"17285","Ishikawa_large_pos_6_0.jpg",NA,NA,NA,NA,NA,NA,NA,NA,NA,NA,NA,NA,NA,NA,NA,NA,"[]","middle",2,"pos",6,4,2,3,3,3,2,1,"31792","26","female","woman","","african","","No","",""
"5","5d49fbb01da04c001a407042","svTrial","survey",12,144951,"0.0-2.0-10.0","65553732575bb29198a888d7","65566dc8d643c3a98feb1485",3,"13539","Toyama_large_sch_4_1.jpg",NA,NA,NA,NA,NA,NA,NA,NA,NA,NA,NA,NA,NA,NA,NA,NA,"[]","small",2,"sch",4,5,1,1,1,1,1,1,"31792","26","female","woman","","african","","No","",""
"6","5d49fbb01da04c001a407042","svTrial","survey",13,180589,"0.0-2.0-11.0","65553732575bb29198a888d7","65566dc8d643c3a98feb1485",3,"35622","Akita_large_sch_10_1.jpg",NA,NA,NA,NA,NA,NA,NA,NA,NA,NA,NA,NA,NA,NA,NA,NA,"[]","small",2,"pos",10,6,2,1,2,2,2,1,"31792","26","female","woman","","african","","No","",""
"7","5d49fbb01da04c001a407042","svTrial","survey",14,232153,"0.0-2.0-12.0","65553732575bb29198a888d7","65566dc8d643c3a98feb1485",3,"51547","Okinawa_large_sch_2_0.jpg",NA,NA,NA,NA,NA,NA,NA,NA,NA,NA,NA,NA,NA,NA,NA,NA,"[]","small",1,"sch",2,7,5,5,4,4,4,1,"31792","26","female","woman","","african","","No","",""
"8","5d49fbb01da04c001a407042","svTrial","survey",15,241773,"0.0-2.0-13.0","65553732575bb29198a888d7","65566dc8d643c3a98feb1485",3,"9607","Tokyo_small_sch_1_2.jpg",NA,NA,NA,NA,NA,NA,NA,NA,NA,NA,NA,NA,NA,NA,NA,NA,"[]","small",1,"sch",1,8,2,2,2,1,2,1,"31792","26","female","woman","","african","","No","",""
"9","5d49fbb01da04c001a407042","svTrial","survey",16,285237,"0.0-2.0-14.0","65553732575bb29198a888d7","65566dc8d643c3a98feb1485",3,"43449","Kanagawa_large_sch_11_1.jpg",NA,NA,NA,NA,NA,NA,NA,NA,NA,NA,NA,NA,NA,NA,NA,NA,"[]","large",1,"sch",11,9,2,1,2,2,2,1,"31792","26","female","woman","","african","","No","",""
"10","5d49fbb01da04c001a407042","svTrial","survey",17,407908,"0.0-2.0-15.0","65553732575bb29198a888d7","65566dc8d643c3a98feb1485",3,"122680","Akita_middle_sch_6_0.jpg",NA,NA,NA,NA,NA,NA,NA,NA,NA,NA,NA,NA,NA,NA,NA,NA,"[]","small",2,"sch",6,10,2,1,2,2,1,1,"31792","26","female","woman","","african","","No","",""
"11","5d49fbb01da04c001a407042","svTrial","survey",18,423519,"0.0-2.0-16.0","65553732575bb29198a888d7","65566dc8d643c3a98feb1485",3,"15595","Hokkaido_middle_pos_1_0.jpg",NA,NA,NA,NA,NA,NA,NA,NA,NA,NA,NA,NA,NA,NA,NA,NA,"[]","small",1,"sch",1,11,3,2,2,2,3,1,"31792","26","female","woman","","african","","No","",""
"12","5d49fbb01da04c001a407042","svTrial","survey",19,439216,"0.0-2.0-17.0","65553732575bb29198a888d7","65566dc8d643c3a98feb1485",3,"15683","Kanagawa_large_pos_4_3.jpg",NA,NA,NA,NA,NA,NA,NA,NA,NA,NA,NA,NA,NA,NA,NA,NA,"[]","small",1,"pos",4,12,3,4,2,4,3,1,"31792","26","female","woman","","african","","No","",""
"13","5d49fbb01da04c001a407042","svTrial","survey",20,555918,"0.0-2.0-18.0","65553732575bb29198a888d7","65566dc8d643c3a98feb1485",3,"116683","Hokkaido_large_sch_4_3.jpg",NA,NA,NA,NA,NA,NA,NA,NA,NA,NA,NA,NA,NA,NA,NA,NA,"[]","small",1,"sch",4,13,2,3,2,2,2,1,"31792","26","female","woman","","african","","No","",""
"14","5d49fbb01da04c001a407042","svTrial","survey",21,568933,"0.0-2.0-19.0","65553732575bb29198a888d7","65566dc8d643c3a98feb1485",3,"13001","Akita_large_pos_9_0.jpg",NA,NA,NA,NA,NA,NA,NA,NA,NA,NA,NA,NA,NA,NA,NA,NA,"[]","small",2,"pos",9,14,2,2,1,2,2,1,"31792","26","female","woman","","african","","No","",""
"15","5d49fbb01da04c001a407042","svTrial","survey",22,590757,"0.0-2.0-20.0","65553732575bb29198a888d7","65566dc8d643c3a98feb1485",3,"21811","Hokkaido_middle_sch_1_2.jpg",NA,NA,NA,NA,NA,NA,NA,NA,NA,NA,NA,NA,NA,NA,NA,NA,"[]","small",1,"sch",1,15,1,1,1,1,1,1,"31792","26","female","woman","","african","","No","",""
"16","5d49fbb01da04c001a407042","svTrial","survey",23,633241,"0.0-2.0-21.0","65553732575bb29198a888d7","65566dc8d643c3a98feb1485",3,"42470","Toyama_large_pos_12_2.jpg",NA,NA,NA,NA,NA,NA,NA,NA,NA,NA,NA,NA,NA,NA,NA,NA,"[]","large",2,"sch",12,16,2,2,2,2,2,1,"31792","26","female","woman","","african","","No","",""
"17","5d49fbb01da04c001a407042","svTrial","survey",24,698740,"0.0-2.0-22.0","65553732575bb29198a888d7","65566dc8d643c3a98feb1485",3,"65484","Kanagawa_middle_pos_6_1.jpg",NA,NA,NA,NA,NA,NA,NA,NA,NA,NA,NA,NA,NA,NA,NA,NA,"[]","large",1,"sch",6,17,3,2,2,2,3,1,"31792","26","female","woman","","african","","No","",""
"18","5d49fbb01da04c001a407042","svTrial","survey",25,737116,"0.0-2.0-23.0","65553732575bb29198a888d7","65566dc8d643c3a98feb1485",3,"38362","Akita_large_sch_1_2.jpg",NA,NA,NA,NA,NA,NA,NA,NA,NA,NA,NA,NA,NA,NA,NA,NA,"[]","small",2,"pos",1,18,2,3,2,2,2,1,"31792","26","female","woman","","african","","No","",""
"19","5d49fbb01da04c001a407042","svTrial","survey",26,790199,"0.0-2.0-24.0","65553732575bb29198a888d7","65566dc8d643c3a98feb1485",3,"53066","Tokyo_small_sch_4_2.jpg",NA,NA,NA,NA,NA,NA,NA,NA,NA,NA,NA,NA,NA,NA,NA,NA,"[]","large",1,"pos",4,19,2,3,2,2,2,1,"31792","26","female","woman","","african","","No","",""
"20","5d49fbb01da04c001a407042","svTrial","survey",27,813749,"0.0-2.0-25.0","65553732575bb29198a888d7","65566dc8d643c3a98feb1485",3,"23537","Toyama_middle_pos_1_0.jpg",NA,NA,NA,NA,NA,NA,NA,NA,NA,NA,NA,NA,NA,NA,NA,NA,"[]","middle",2,"pos",1,20,2,2,2,2,2,1,"31792","26","female","woman","","african","","No","",""
"21","5d49fbb01da04c001a407042","svTrial","survey",28,824958,"0.0-2.0-26.0","65553732575bb29198a888d7","65566dc8d643c3a98feb1485",3,"11195","Hokkaido_middle_sch_2_0.jpg",NA,NA,NA,NA,NA,NA,NA,NA,NA,NA,NA,NA,NA,NA,NA,NA,"[]","small",1,"pos",2,21,2,1,1,2,2,1,"31792","26","female","woman","","african","","No","",""
"22","5d49fbb01da04c001a407042","svTrial","survey",29,844985,"0.0-2.0-27.0","65553732575bb29198a888d7","65566dc8d643c3a98feb1485",3,"20011","Ishikawa_large_pos_3_1.jpg",NA,NA,NA,NA,NA,NA,NA,NA,NA,NA,NA,NA,NA,NA,NA,NA,"[]","large",2,"pos",3,22,1,1,1,1,1,1,"31792","26","female","woman","","african","","No","",""
"23","5d49fbb01da04c001a407042","svTrial","survey",30,893127,"0.0-2.0-28.0","65553732575bb29198a888d7","65566dc8d643c3a98feb1485",3,"48125","Akita_large_sch_7_1.jpg",NA,NA,NA,NA,NA,NA,NA,NA,NA,NA,NA,NA,NA,NA,NA,NA,"[]","large",2,"sch",7,23,3,2,1,3,3,1,"31792","26","female","woman","","african","","No","",""
"24","5d49fbb01da04c001a407042","svTrial","survey",31,908699,"0.0-2.0-29.0","65553732575bb29198a888d7","65566dc8d643c3a98feb1485",3,"15557","Ishikawa_large_pos_5_3.jpg",NA,NA,NA,NA,NA,NA,NA,NA,NA,NA,NA,NA,NA,NA,NA,NA,"[]","large",2,"pos",5,24,2,1,2,1,1,1,"31792","26","female","woman","","african","","No","",""
"25","5d49fbb01da04c001a407042","svTrial","survey",33,935821,"0.0-2.0-31.0","65553732575bb29198a888d7","65566dc8d643c3a98feb1485",3,"11350","Hokkaido_middle_sch_6_3.jpg",NA,NA,NA,NA,NA,NA,NA,NA,NA,NA,NA,NA,NA,NA,NA,NA,"[]","small",1,"sch",6,25,1,2,1,1,1,1,"31792","26","female","woman","","african","","No","",""
"26","5d49fbb01da04c001a407042","svTrial","survey",34,977928,"0.0-2.0-32.0","65553732575bb29198a888d7","65566dc8d643c3a98feb1485",3,"42094","Kanagawa_middle_pos_2_3.jpg",NA,NA,NA,NA,NA,NA,NA,NA,NA,NA,NA,NA,NA,NA,NA,NA,"[]","small",1,"pos",2,26,2,2,2,1,2,1,"31792","26","female","woman","","african","","No","",""
"27","5d49fbb01da04c001a407042","svTrial","survey",35,1003708,"0.0-2.0-33.0","65553732575bb29198a888d7","65566dc8d643c3a98feb1485",3,"25765","Toyama_small_sch_3_0.jpg",NA,NA,NA,NA,NA,NA,NA,NA,NA,NA,NA,NA,NA,NA,NA,NA,"[]","large",2,"pos",3,27,2,2,1,2,2,1,"31792","26","female","woman","","african","","No","",""
"28","5d49fbb01da04c001a407042","svTrial","survey",36,1020269,"0.0-2.0-34.0","65553732575bb29198a888d7","65566dc8d643c3a98feb1485",3,"16547","Niigata_middle_pos_1_0.jpg",NA,NA,NA,NA,NA,NA,NA,NA,NA,NA,NA,NA,NA,NA,NA,NA,"[]","middle",2,"pos",1,28,2,2,2,2,1,1,"31792","26","female","woman","","african","","No","",""
"29","5d49fbb01da04c001a407042","svTrial","survey",37,1120804,"0.0-2.0-35.0","65553732575bb29198a888d7","65566dc8d643c3a98feb1485",3,"100521","Akita_small_sch_1_1.jpg",NA,NA,NA,NA,NA,NA,NA,NA,NA,NA,NA,NA,NA,NA,NA,NA,"[]","middle",2,"sch",1,29,2,3,2,3,2,1,"31792","26","female","woman","","african","","No","",""
"30","5d49fbb01da04c001a407042","svTrial","survey",38,1129709,"0.0-2.0-36.0","65553732575bb29198a888d7","65566dc8d643c3a98feb1485",3,"8888","Niigata_small_pos_1_2.jpg",NA,NA,NA,NA,NA,NA,NA,NA,NA,NA,NA,NA,NA,NA,NA,NA,"[]","small",2,"pos",1,30,2,2,2,1,2,1,"31792","26","female","woman","","african","","No","",""
"31","5d49fbb01da04c001a407042","svTrial","survey",39,1175262,"0.0-2.0-37.0","65553732575bb29198a888d7","65566dc8d643c3a98feb1485",3,"45538","Niigata_large_sch_3_2.jpg",NA,NA,NA,NA,NA,NA,NA,NA,NA,NA,NA,NA,NA,NA,NA,NA,"[]","large",2,"sch",3,31,2,4,3,2,1,1,"31792","26","female","woman","","african","","No","",""
"32","5d49fbb01da04c001a407042","svTrial","survey",40,1197892,"0.0-2.0-38.0","65553732575bb29198a888d7","65566dc8d643c3a98feb1485",3,"22615","Niigata_large_pos_9_2.jpg",NA,NA,NA,NA,NA,NA,NA,NA,NA,NA,NA,NA,NA,NA,NA,NA,"[]","small",2,"sch",9,32,2,2,3,2,2,1,"31792","26","female","woman","","african","","No","",""
"33","5d49fbb01da04c001a407042","svTrial","survey",41,1222646,"0.0-2.0-39.0","65553732575bb29198a888d7","65566dc8d643c3a98feb1485",3,"24738","Niigata_large_pos_4_2.jpg",NA,NA,NA,NA,NA,NA,NA,NA,NA,NA,NA,NA,NA,NA,NA,NA,"[]","middle",2,"pos",4,33,3,3,2,3,2,1,"31792","26","female","woman","","african","","No","",""
"34","5d49fbb01da04c001a407042","svTrial","survey",42,1234863,"0.0-2.0-40.0","65553732575bb29198a888d7","65566dc8d643c3a98feb1485",3,"12204","Toyama_large_sch_8_0.jpg",NA,NA,NA,NA,NA,NA,NA,NA,NA,NA,NA,NA,NA,NA,NA,NA,"[]","small",2,"pos",8,34,2,2,2,2,2,1,"31792","26","female","woman","","african","","No","",""
"35","5d49fbb01da04c001a407042","svTrial","survey",43,1259094,"0.0-2.0-41.0","65553732575bb29198a888d7","65566dc8d643c3a98feb1485",3,"24217","Kanagawa_middle_sch_1_1.jpg",NA,NA,NA,NA,NA,NA,NA,NA,NA,NA,NA,NA,NA,NA,NA,NA,"[]","small",1,"sch",1,35,4,2,3,2,2,1,"31792","26","female","woman","","african","","No","",""
"36","5d49fbb01da04c001a407042","svTrial","survey",44,1273773,"0.0-2.0-42.0","65553732575bb29198a888d7","65566dc8d643c3a98feb1485",3,"14663","Hokkaido_large_pos_4_3.jpg",NA,NA,NA,NA,NA,NA,NA,NA,NA,NA,NA,NA,NA,NA,NA,NA,"[]","middle",1,"sch",4,36,3,2,1,2,2,1,"31792","26","female","woman","","african","","No","",""
"37","5d49fbb01da04c001a407042","svTrial","survey",45,1296647,"0.0-2.0-43.0","65553732575bb29198a888d7","65566dc8d643c3a98feb1485",3,"22868","Toyama_large_pos_5_3.jpg",NA,NA,NA,NA,NA,NA,NA,NA,NA,NA,NA,NA,NA,NA,NA,NA,"[]","small",2,"pos",5,37,1,1,2,1,1,1,"31792","26","female","woman","","african","","No","",""
"38","5d49fbb01da04c001a407042","svTrial","survey",46,1310609,"0.0-2.0-44.0","65553732575bb29198a888d7","65566dc8d643c3a98feb1485",3,"13966","Ishikawa_large_pos_7_2.jpg",NA,NA,NA,NA,NA,NA,NA,NA,NA,NA,NA,NA,NA,NA,NA,NA,"[]","large",2,"sch",7,38,1,2,2,1,2,1,"31792","26","female","woman","","african","","No","",""
"39","5d49fbb01da04c001a407042","svTrial","survey",48,1354385,"0.0-2.0-46.0","65553732575bb29198a888d7","65566dc8d643c3a98feb1485",3,"10733","Tokyo_middle_pos_5_2.jpg",NA,NA,NA,NA,NA,NA,NA,NA,NA,NA,NA,NA,NA,NA,NA,NA,"[]","small",1,"sch",5,39,4,3,3,3,3,1,"31792","26","female","woman","","african","","No","",""
"40","5d49fbb01da04c001a407042","svTrial","survey",49,1439185,"0.0-2.0-47.0","65553732575bb29198a888d7","65566dc8d643c3a98feb1485",3,"84785","Kanagawa_small_pos_1_1.jpg",NA,NA,NA,NA,NA,NA,NA,NA,NA,NA,NA,NA,NA,NA,NA,NA,"[]","middle",1,"sch",1,40,3,3,2,3,3,1,"31792","26","female","woman","","african","","No","",""
"41","5d49fbb01da04c001a407042","svTrial","survey",50,1560230,"0.0-2.0-48.0","65553732575bb29198a888d7","65566dc8d643c3a98feb1485",3,"121026","Hokkaido_large_sch_11_3.jpg",NA,NA,NA,NA,NA,NA,NA,NA,NA,NA,NA,NA,NA,NA,NA,NA,"[]","large",1,"sch",11,41,3,2,2,3,2,1,"31792","26","female","woman","","african","","No","",""
"42","5d49fbb01da04c001a407042","svTrial","survey",51,1590253,"0.0-2.0-49.0","65553732575bb29198a888d7","65566dc8d643c3a98feb1485",3,"30007","Okinawa_middle_pos_4_0.jpg",NA,NA,NA,NA,NA,NA,NA,NA,NA,NA,NA,NA,NA,NA,NA,NA,"[]","small",1,"sch",4,42,4,3,3,3,3,1,"31792","26","female","woman","","african","","No","",""
"43","5d49fbb01da04c001a407042","svTrial","survey",52,1598665,"0.0-2.0-50.0","65553732575bb29198a888d7","65566dc8d643c3a98feb1485",3,"8397","Niigata_middle_pos_7_2.jpg",NA,NA,NA,NA,NA,NA,NA,NA,NA,NA,NA,NA,NA,NA,NA,NA,"[]","large",2,"sch",7,43,2,3,2,2,2,1,"31792","26","female","woman","","african","","No","",""
"44","5d49fbb01da04c001a407042","svTrial","survey",53,1608057,"0.0-2.0-51.0","65553732575bb29198a888d7","65566dc8d643c3a98feb1485",3,"9378","Kanagawa_large_pos_7_2.jpg",NA,NA,NA,NA,NA,NA,NA,NA,NA,NA,NA,NA,NA,NA,NA,NA,"[]","small",1,"pos",7,44,2,3,2,2,3,1,"31792","26","female","woman","","african","","No","",""
"45","5d49fbb01da04c001a407042","svTrial","survey",54,1619045,"0.0-2.0-52.0","65553732575bb29198a888d7","65566dc8d643c3a98feb1485",3,"10973","Okinawa_middle_pos_6_0.jpg",NA,NA,NA,NA,NA,NA,NA,NA,NA,NA,NA,NA,NA,NA,NA,NA,"[]","large",1,"pos",6,45,4,3,3,3,4,1,"31792","26","female","woman","","african","","No","",""
"46","5d49fbb01da04c001a407042","svTrial","survey",55,1630466,"0.0-2.0-53.0","65553732575bb29198a888d7","65566dc8d643c3a98feb1485",3,"11408","Ishikawa_middle_pos_6_1.jpg",NA,NA,NA,NA,NA,NA,NA,NA,NA,NA,NA,NA,NA,NA,NA,NA,"[]","middle",2,"pos",6,46,2,2,2,2,2,1,"31792","26","female","woman","","african","","No","",""
"47","5d49fbb01da04c001a407042","svTrial","survey",56,1640788,"0.0-2.0-54.0","65553732575bb29198a888d7","65566dc8d643c3a98feb1485",3,"10311","Okinawa_small_pos_3_1.jpg",NA,NA,NA,NA,NA,NA,NA,NA,NA,NA,NA,NA,NA,NA,NA,NA,"[]","large",1,"pos",3,47,2,1,2,2,2,1,"31792","26","female","woman","","african","","No","",""
"48","5d49fbb01da04c001a407042","svTrial","survey",57,1657766,"0.0-2.0-55.0","65553732575bb29198a888d7","65566dc8d643c3a98feb1485",3,"16966","Hokkaido_large_sch_3_3.jpg",NA,NA,NA,NA,NA,NA,NA,NA,NA,NA,NA,NA,NA,NA,NA,NA,"[]","small",1,"sch",3,48,2,2,2,1,2,1,"31792","26","female","woman","","african","","No","",""
