"","subject_id","task","trial_type","trial_index","time_elapsed","internal_node_id","study_id","session_id","group","rt","stimulus","width","height","webaudio","browser","browser_version","mobile","os","fullscreen","vsync_rate","webcam","microphone","success","timeout","failed_images","failed_audio","failed_video","accuracy","size","culture","loct","number","document.id","ambiguous","objects","invisible","chaos","complex","passedChecks","zipcode","age","sex","gender","gender-self-describe","ethnicity","ethnicity-self-describe","outsideUS","outsideUS_years","surveyComments"
"1","5da23c68cf775d001724d361","svTrial","survey",8,118570,"0.0-2.0-6.0","65553732575bb29198a888d7","6556582ff7f76ced5af0078e",4,"15931","Toyama_middle_sch_3_2.jpg",NA,NA,NA,NA,NA,NA,NA,NA,NA,NA,NA,NA,NA,NA,NA,NA,"[]","large",2,"sch",3,1,4,4,4,3,4,1,"99163","29","not-to-say","nonbinary","","caucasian","","No","",""
"2","5da23c68cf775d001724d361","svTrial","survey",9,133877,"0.0-2.0-7.0","65553732575bb29198a888d7","6556582ff7f76ced5af0078e",4,"15197","Ishikawa_small_pos_3_1.jpg",NA,NA,NA,NA,NA,NA,NA,NA,NA,NA,NA,NA,NA,NA,NA,NA,"[]","middle",2,"pos",3,2,2,3,4,1,3,1,"99163","29","not-to-say","nonbinary","","caucasian","","No","",""
"3","5da23c68cf775d001724d361","svTrial","survey",10,146874,"0.0-2.0-8.0","65553732575bb29198a888d7","6556582ff7f76ced5af0078e",4,"12905","Tokyo_small_pos_4_1.jpg",NA,NA,NA,NA,NA,NA,NA,NA,NA,NA,NA,NA,NA,NA,NA,NA,"[]","large",1,"sch",4,3,4,3,4,3,3,1,"99163","29","not-to-say","nonbinary","","caucasian","","No","",""
"4","5da23c68cf775d001724d361","svTrial","survey",11,161179,"0.0-2.0-9.0","65553732575bb29198a888d7","6556582ff7f76ced5af0078e",4,"14205","Ishikawa_large_sch_2_3.jpg",NA,NA,NA,NA,NA,NA,NA,NA,NA,NA,NA,NA,NA,NA,NA,NA,"[]","middle",2,"sch",2,4,4,4,5,2,3,1,"99163","29","not-to-say","nonbinary","","caucasian","","No","",""
"5","5da23c68cf775d001724d361","svTrial","survey",12,174340,"0.0-2.0-10.0","65553732575bb29198a888d7","6556582ff7f76ced5af0078e",4,"13063","Akita_small_sch_3_0.jpg",NA,NA,NA,NA,NA,NA,NA,NA,NA,NA,NA,NA,NA,NA,NA,NA,"[]","large",2,"pos",3,5,4,4,3,3,3,1,"99163","29","not-to-say","nonbinary","","caucasian","","No","",""
"6","5da23c68cf775d001724d361","svTrial","survey",13,198944,"0.0-2.0-11.0","65553732575bb29198a888d7","6556582ff7f76ced5af0078e",4,"24500","Tokyo_middle_sch_7_1.jpg",NA,NA,NA,NA,NA,NA,NA,NA,NA,NA,NA,NA,NA,NA,NA,NA,"[]","middle",1,"sch",7,6,4,5,4,4,3,1,"99163","29","not-to-say","nonbinary","","caucasian","","No","",""
"7","5da23c68cf775d001724d361","svTrial","survey",14,215684,"0.0-2.0-12.0","65553732575bb29198a888d7","6556582ff7f76ced5af0078e",4,"16644","Tokyo_large_pos_3_1.jpg",NA,NA,NA,NA,NA,NA,NA,NA,NA,NA,NA,NA,NA,NA,NA,NA,"[]","large",1,"sch",3,7,2,3,3,2,3,1,"99163","29","not-to-say","nonbinary","","caucasian","","No","",""
"8","5da23c68cf775d001724d361","svTrial","survey",15,243775,"0.0-2.0-13.0","65553732575bb29198a888d7","6556582ff7f76ced5af0078e",4,"27995","Hokkaido_middle_sch_7_0.jpg",NA,NA,NA,NA,NA,NA,NA,NA,NA,NA,NA,NA,NA,NA,NA,NA,"[]","small",1,"pos",7,8,1,5,3,1,1,1,"99163","29","not-to-say","nonbinary","","caucasian","","No","",""
"9","5da23c68cf775d001724d361","svTrial","survey",16,259898,"0.0-2.0-14.0","65553732575bb29198a888d7","6556582ff7f76ced5af0078e",4,"15985","Hokkaido_large_pos_1_1.jpg",NA,NA,NA,NA,NA,NA,NA,NA,NA,NA,NA,NA,NA,NA,NA,NA,"[]","large",1,"sch",1,9,3,3,3,3,3,1,"99163","29","not-to-say","nonbinary","","caucasian","","No","",""
"10","5da23c68cf775d001724d361","svTrial","survey",17,280620,"0.0-2.0-15.0","65553732575bb29198a888d7","6556582ff7f76ced5af0078e",4,"20625","Ishikawa_middle_sch_5_3.jpg",NA,NA,NA,NA,NA,NA,NA,NA,NA,NA,NA,NA,NA,NA,NA,NA,"[]","small",2,"sch",5,10,2,4,2,1,2,1,"99163","29","not-to-say","nonbinary","","caucasian","","No","",""
"11","5da23c68cf775d001724d361","svTrial","survey",18,381423,"0.0-2.0-16.0","65553732575bb29198a888d7","6556582ff7f76ced5af0078e",4,"100703","Tokyo_large_sch_12_2.jpg",NA,NA,NA,NA,NA,NA,NA,NA,NA,NA,NA,NA,NA,NA,NA,NA,"[]","middle",1,"sch",12,11,4,4,4,4,3,1,"99163","29","not-to-say","nonbinary","","caucasian","","No","",""
"12","5da23c68cf775d001724d361","svTrial","survey",19,403374,"0.0-2.0-17.0","65553732575bb29198a888d7","6556582ff7f76ced5af0078e",4,"21831","Ishikawa_large_sch_9_0.jpg",NA,NA,NA,NA,NA,NA,NA,NA,NA,NA,NA,NA,NA,NA,NA,NA,"[]","large",2,"pos",9,12,4,4,4,3,3,1,"99163","29","not-to-say","nonbinary","","caucasian","","No","",""
"13","5da23c68cf775d001724d361","svTrial","survey",20,415519,"0.0-2.0-18.0","65553732575bb29198a888d7","6556582ff7f76ced5af0078e",4,"12048","Kanagawa_large_sch_2_1.jpg",NA,NA,NA,NA,NA,NA,NA,NA,NA,NA,NA,NA,NA,NA,NA,NA,"[]","large",1,"pos",2,13,3,4,5,2,3,1,"99163","29","not-to-say","nonbinary","","caucasian","","No","",""
"14","5da23c68cf775d001724d361","svTrial","survey",21,427264,"0.0-2.0-19.0","65553732575bb29198a888d7","6556582ff7f76ced5af0078e",4,"11661","Okinawa_large_pos_6_3.jpg",NA,NA,NA,NA,NA,NA,NA,NA,NA,NA,NA,NA,NA,NA,NA,NA,"[]","middle",1,"pos",6,14,3,4,3,2,3,1,"99163","29","not-to-say","nonbinary","","caucasian","","No","",""
"15","5da23c68cf775d001724d361","svTrial","survey",22,457785,"0.0-2.0-20.0","65553732575bb29198a888d7","6556582ff7f76ced5af0078e",4,"30431","Okinawa_large_sch_7_0.jpg",NA,NA,NA,NA,NA,NA,NA,NA,NA,NA,NA,NA,NA,NA,NA,NA,"[]","small",1,"pos",7,15,2,4,3,2,3,1,"99163","29","not-to-say","nonbinary","","caucasian","","No","",""
"16","5da23c68cf775d001724d361","svTrial","survey",23,471068,"0.0-2.0-21.0","65553732575bb29198a888d7","6556582ff7f76ced5af0078e",4,"13207","Kanagawa_middle_pos_5_3.jpg",NA,NA,NA,NA,NA,NA,NA,NA,NA,NA,NA,NA,NA,NA,NA,NA,"[]","large",1,"pos",5,16,2,4,3,2,3,1,"99163","29","not-to-say","nonbinary","","caucasian","","No","",""
"17","5da23c68cf775d001724d361","svTrial","survey",24,482054,"0.0-2.0-22.0","65553732575bb29198a888d7","6556582ff7f76ced5af0078e",4,"10906","Okinawa_large_pos_8_3.jpg",NA,NA,NA,NA,NA,NA,NA,NA,NA,NA,NA,NA,NA,NA,NA,NA,"[]","middle",1,"pos",8,17,1,4,3,1,3,1,"99163","29","not-to-say","nonbinary","","caucasian","","No","",""
"18","5da23c68cf775d001724d361","svTrial","survey",25,518362,"0.0-2.0-23.0","65553732575bb29198a888d7","6556582ff7f76ced5af0078e",4,"36220","Okinawa_middle_pos_2_3.jpg",NA,NA,NA,NA,NA,NA,NA,NA,NA,NA,NA,NA,NA,NA,NA,NA,"[]","small",1,"sch",2,18,2,3,3,1,3,1,"99163","29","not-to-say","nonbinary","","caucasian","","No","",""
"19","5da23c68cf775d001724d361","svTrial","survey",26,531819,"0.0-2.0-24.0","65553732575bb29198a888d7","6556582ff7f76ced5af0078e",4,"13345","Niigata_large_pos_10_1.jpg",NA,NA,NA,NA,NA,NA,NA,NA,NA,NA,NA,NA,NA,NA,NA,NA,"[]","small",2,"pos",10,19,2,4,3,2,3,1,"99163","29","not-to-say","nonbinary","","caucasian","","No","",""
"20","5da23c68cf775d001724d361","svTrial","survey",27,540399,"0.0-2.0-25.0","65553732575bb29198a888d7","6556582ff7f76ced5af0078e",4,"8488","Ishikawa_middle_sch_8_3.jpg",NA,NA,NA,NA,NA,NA,NA,NA,NA,NA,NA,NA,NA,NA,NA,NA,"[]","middle",2,"sch",8,20,1,5,3,1,3,1,"99163","29","not-to-say","nonbinary","","caucasian","","No","",""
"21","5da23c68cf775d001724d361","svTrial","survey",28,550612,"0.0-2.0-26.0","65553732575bb29198a888d7","6556582ff7f76ced5af0078e",4,"10116","Akita_large_sch_11_0.jpg",NA,NA,NA,NA,NA,NA,NA,NA,NA,NA,NA,NA,NA,NA,NA,NA,"[]","small",2,"sch",11,21,4,3,4,3,3,1,"99163","29","not-to-say","nonbinary","","caucasian","","No","",""
"22","5da23c68cf775d001724d361","svTrial","survey",29,565276,"0.0-2.0-27.0","65553732575bb29198a888d7","6556582ff7f76ced5af0078e",4,"14565","Ishikawa_large_sch_12_3.jpg",NA,NA,NA,NA,NA,NA,NA,NA,NA,NA,NA,NA,NA,NA,NA,NA,"[]","middle",2,"pos",12,22,2,4,2,2,2,1,"99163","29","not-to-say","nonbinary","","caucasian","","No","",""
"23","5da23c68cf775d001724d361","svTrial","survey",30,578937,"0.0-2.0-28.0","65553732575bb29198a888d7","6556582ff7f76ced5af0078e",4,"13582","Akita_large_sch_9_2.jpg",NA,NA,NA,NA,NA,NA,NA,NA,NA,NA,NA,NA,NA,NA,NA,NA,"[]","large",2,"pos",9,23,2,3,2,3,3,1,"99163","29","not-to-say","nonbinary","","caucasian","","No","",""
"24","5da23c68cf775d001724d361","svTrial","survey",31,595164,"0.0-2.0-29.0","65553732575bb29198a888d7","6556582ff7f76ced5af0078e",4,"16137","Akita_large_sch_6_0.jpg",NA,NA,NA,NA,NA,NA,NA,NA,NA,NA,NA,NA,NA,NA,NA,NA,"[]","large",2,"sch",6,24,4,4,4,1,2,1,"99163","29","not-to-say","nonbinary","","caucasian","","No","",""
"25","5da23c68cf775d001724d361","svTrial","survey",33,625816,"0.0-2.0-31.0","65553732575bb29198a888d7","6556582ff7f76ced5af0078e",4,"14715","Tokyo_middle_pos_8_3.jpg",NA,NA,NA,NA,NA,NA,NA,NA,NA,NA,NA,NA,NA,NA,NA,NA,"[]","large",1,"sch",8,25,3,4,3,4,4,1,"99163","29","not-to-say","nonbinary","","caucasian","","No","",""
"26","5da23c68cf775d001724d361","svTrial","survey",35,642372,"0.0-2.0-33.0","65553732575bb29198a888d7","6556582ff7f76ced5af0078e",4,"9695","Okinawa_small_pos_4_0.jpg",NA,NA,NA,NA,NA,NA,NA,NA,NA,NA,NA,NA,NA,NA,NA,NA,"[]","middle",1,"sch",4,26,4,4,4,4,3,1,"99163","29","not-to-say","nonbinary","","caucasian","","No","",""
"27","5da23c68cf775d001724d361","svTrial","survey",36,655701,"0.0-2.0-34.0","65553732575bb29198a888d7","6556582ff7f76ced5af0078e",4,"13240","Ishikawa_large_pos_4_0.jpg",NA,NA,NA,NA,NA,NA,NA,NA,NA,NA,NA,NA,NA,NA,NA,NA,"[]","middle",2,"pos",4,27,3,4,2,2,4,1,"99163","29","not-to-say","nonbinary","","caucasian","","No","",""
"28","5da23c68cf775d001724d361","svTrial","survey",37,668015,"0.0-2.0-35.0","65553732575bb29198a888d7","6556582ff7f76ced5af0078e",4,"12225","Ishikawa_middle_sch_4_2.jpg",NA,NA,NA,NA,NA,NA,NA,NA,NA,NA,NA,NA,NA,NA,NA,NA,"[]","middle",2,"sch",4,28,2,3,2,3,3,1,"99163","29","not-to-say","nonbinary","","caucasian","","No","",""
"29","5da23c68cf775d001724d361","svTrial","survey",38,681746,"0.0-2.0-36.0","65553732575bb29198a888d7","6556582ff7f76ced5af0078e",4,"13636","Hokkaido_middle_pos_8_3.jpg",NA,NA,NA,NA,NA,NA,NA,NA,NA,NA,NA,NA,NA,NA,NA,NA,"[]","middle",1,"pos",8,29,4,4,4,2,3,1,"99163","29","not-to-say","nonbinary","","caucasian","","No","",""
"30","5da23c68cf775d001724d361","svTrial","survey",39,693290,"0.0-2.0-37.0","65553732575bb29198a888d7","6556582ff7f76ced5af0078e",4,"11462","Niigata_middle_pos_5_3.jpg",NA,NA,NA,NA,NA,NA,NA,NA,NA,NA,NA,NA,NA,NA,NA,NA,"[]","middle",2,"pos",5,30,5,5,5,4,4,1,"99163","29","not-to-say","nonbinary","","caucasian","","No","",""
"31","5da23c68cf775d001724d361","svTrial","survey",40,705465,"0.0-2.0-38.0","65553732575bb29198a888d7","6556582ff7f76ced5af0078e",4,"12081","Tokyo_small_pos_1_0.jpg",NA,NA,NA,NA,NA,NA,NA,NA,NA,NA,NA,NA,NA,NA,NA,NA,"[]","large",1,"pos",1,31,4,4,3,2,3,1,"99163","29","not-to-say","nonbinary","","caucasian","","No","",""
"32","5da23c68cf775d001724d361","svTrial","survey",41,715068,"0.0-2.0-39.0","65553732575bb29198a888d7","6556582ff7f76ced5af0078e",4,"9514","Ishikawa_middle_sch_2_1.jpg",NA,NA,NA,NA,NA,NA,NA,NA,NA,NA,NA,NA,NA,NA,NA,NA,"[]","middle",2,"pos",2,32,3,4,3,2,3,1,"99163","29","not-to-say","nonbinary","","caucasian","","No","",""
"33","5da23c68cf775d001724d361","svTrial","survey",42,727103,"0.0-2.0-40.0","65553732575bb29198a888d7","6556582ff7f76ced5af0078e",4,"11957","Akita_middle_sch_5_1.jpg",NA,NA,NA,NA,NA,NA,NA,NA,NA,NA,NA,NA,NA,NA,NA,NA,"[]","small",2,"pos",5,33,3,4,2,3,3,1,"99163","29","not-to-say","nonbinary","","caucasian","","No","",""
"34","5da23c68cf775d001724d361","svTrial","survey",43,741087,"0.0-2.0-41.0","65553732575bb29198a888d7","6556582ff7f76ced5af0078e",4,"13899","Akita_small_pos_4_0.jpg",NA,NA,NA,NA,NA,NA,NA,NA,NA,NA,NA,NA,NA,NA,NA,NA,"[]","small",2,"pos",4,34,4,4,4,2,3,1,"99163","29","not-to-say","nonbinary","","caucasian","","No","",""
"35","5da23c68cf775d001724d361","svTrial","survey",44,755393,"0.0-2.0-42.0","65553732575bb29198a888d7","6556582ff7f76ced5af0078e",4,"14228","Akita_large_pos_3_1.jpg",NA,NA,NA,NA,NA,NA,NA,NA,NA,NA,NA,NA,NA,NA,NA,NA,"[]","middle",2,"pos",3,35,2,3,2,2,3,1,"99163","29","not-to-say","nonbinary","","caucasian","","No","",""
"36","5da23c68cf775d001724d361","svTrial","survey",45,769676,"0.0-2.0-43.0","65553732575bb29198a888d7","6556582ff7f76ced5af0078e",4,"14206","Toyama_middle_sch_7_2.jpg",NA,NA,NA,NA,NA,NA,NA,NA,NA,NA,NA,NA,NA,NA,NA,NA,"[]","middle",2,"pos",7,36,2,2,3,1,3,1,"99163","29","not-to-say","nonbinary","","caucasian","","No","",""
"37","5da23c68cf775d001724d361","svTrial","survey",46,782548,"0.0-2.0-44.0","65553732575bb29198a888d7","6556582ff7f76ced5af0078e",4,"12787","Tokyo_middle_pos_7_3.jpg",NA,NA,NA,NA,NA,NA,NA,NA,NA,NA,NA,NA,NA,NA,NA,NA,"[]","middle",1,"pos",7,37,2,3,2,2,3,1,"99163","29","not-to-say","nonbinary","","caucasian","","No","",""
"38","5da23c68cf775d001724d361","svTrial","survey",47,797889,"0.0-2.0-45.0","65553732575bb29198a888d7","6556582ff7f76ced5af0078e",4,"15258","Toyama_small_pos_2_2.jpg",NA,NA,NA,NA,NA,NA,NA,NA,NA,NA,NA,NA,NA,NA,NA,NA,"[]","small",2,"sch",2,38,3,4,3,1,3,1,"99163","29","not-to-say","nonbinary","","caucasian","","No","",""
"39","5da23c68cf775d001724d361","svTrial","survey",48,808290,"0.0-2.0-46.0","65553732575bb29198a888d7","6556582ff7f76ced5af0078e",4,"10319","Ishikawa_middle_sch_1_2.jpg",NA,NA,NA,NA,NA,NA,NA,NA,NA,NA,NA,NA,NA,NA,NA,NA,"[]","small",2,"sch",1,39,4,4,4,1,3,1,"99163","29","not-to-say","nonbinary","","caucasian","","No","",""
"40","5da23c68cf775d001724d361","svTrial","survey",49,820571,"0.0-2.0-47.0","65553732575bb29198a888d7","6556582ff7f76ced5af0078e",4,"12196","Ishikawa_large_pos_1_3.jpg",NA,NA,NA,NA,NA,NA,NA,NA,NA,NA,NA,NA,NA,NA,NA,NA,"[]","middle",2,"sch",1,40,4,4,4,4,3,1,"99163","29","not-to-say","nonbinary","","caucasian","","No","",""
"41","5da23c68cf775d001724d361","svTrial","survey",50,829948,"0.0-2.0-48.0","65553732575bb29198a888d7","6556582ff7f76ced5af0078e",4,"9296","Okinawa_middle_sch_7_1.jpg",NA,NA,NA,NA,NA,NA,NA,NA,NA,NA,NA,NA,NA,NA,NA,NA,"[]","large",1,"pos",7,41,4,4,4,2,3,1,"99163","29","not-to-say","nonbinary","","caucasian","","No","",""
"42","5da23c68cf775d001724d361","svTrial","survey",51,842980,"0.0-2.0-49.0","65553732575bb29198a888d7","6556582ff7f76ced5af0078e",4,"12952","Kanagawa_small_sch_4_0.jpg",NA,NA,NA,NA,NA,NA,NA,NA,NA,NA,NA,NA,NA,NA,NA,NA,"[]","middle",1,"pos",4,42,5,4,5,3,3,1,"99163","29","not-to-say","nonbinary","","caucasian","","No","",""
"43","5da23c68cf775d001724d361","svTrial","survey",52,852447,"0.0-2.0-50.0","65553732575bb29198a888d7","6556582ff7f76ced5af0078e",4,"9373","Niigata_large_sch_5_0.jpg",NA,NA,NA,NA,NA,NA,NA,NA,NA,NA,NA,NA,NA,NA,NA,NA,"[]","small",2,"pos",5,43,3,4,3,2,3,1,"99163","29","not-to-say","nonbinary","","caucasian","","No","",""
"44","5da23c68cf775d001724d361","svTrial","survey",53,873882,"0.0-2.0-51.0","65553732575bb29198a888d7","6556582ff7f76ced5af0078e",4,"21356","Tokyo_middle_sch_3_1.jpg",NA,NA,NA,NA,NA,NA,NA,NA,NA,NA,NA,NA,NA,NA,NA,NA,"[]","middle",1,"pos",3,44,2,4,4,1,3,1,"99163","29","not-to-say","nonbinary","","caucasian","","No","",""
"45","5da23c68cf775d001724d361","svTrial","survey",54,889246,"0.0-2.0-52.0","65553732575bb29198a888d7","6556582ff7f76ced5af0078e",4,"15282","Kanagawa_large_sch_9_3.jpg",NA,NA,NA,NA,NA,NA,NA,NA,NA,NA,NA,NA,NA,NA,NA,NA,"[]","large",1,"pos",9,45,3,3,2,3,3,1,"99163","29","not-to-say","nonbinary","","caucasian","","No","",""
"46","5da23c68cf775d001724d361","svTrial","survey",55,902599,"0.0-2.0-53.0","65553732575bb29198a888d7","6556582ff7f76ced5af0078e",4,"13255","Kanagawa_large_pos_9_3.jpg",NA,NA,NA,NA,NA,NA,NA,NA,NA,NA,NA,NA,NA,NA,NA,NA,"[]","small",1,"pos",9,46,2,4,2,2,3,1,"99163","29","not-to-say","nonbinary","","caucasian","","No","",""
"47","5da23c68cf775d001724d361","svTrial","survey",56,914923,"0.0-2.0-54.0","65553732575bb29198a888d7","6556582ff7f76ced5af0078e",4,"12251","Kanagawa_middle_pos_8_3.jpg",NA,NA,NA,NA,NA,NA,NA,NA,NA,NA,NA,NA,NA,NA,NA,NA,"[]","middle",1,"sch",8,47,2,4,2,3,3,1,"99163","29","not-to-say","nonbinary","","caucasian","","No","",""
"48","5da23c68cf775d001724d361","svTrial","survey",57,923525,"0.0-2.0-55.0","65553732575bb29198a888d7","6556582ff7f76ced5af0078e",4,"8515","Kanagawa_middle_pos_3_1.jpg",NA,NA,NA,NA,NA,NA,NA,NA,NA,NA,NA,NA,NA,NA,NA,NA,"[]","large",1,"pos",3,48,4,4,4,3,3,1,"99163","29","not-to-say","nonbinary","","caucasian","","No","",""
