"","subject_id","task","trial_type","trial_index","time_elapsed","internal_node_id","study_id","session_id","group","rt","stimulus","width","height","webaudio","browser","browser_version","mobile","os","fullscreen","vsync_rate","webcam","microphone","success","timeout","failed_images","failed_audio","failed_video","accuracy","size","culture","loct","number","document.id","ambiguous","objects","invisible","chaos","complex","passedChecks","zipcode","age","sex","gender","gender-self-describe","ethnicity","ethnicity-self-describe","outsideUS","outsideUS_years","surveyComments"
"1","5ddc3ccd108b67ba3b7efa5a","svTrial","survey",8,78813,"0.0-2.0-6.0","65553732575bb29198a888d7","65565b67265de39dba30d3df",1,"25904","Ishikawa_middle_pos_3_3.jpg",NA,NA,NA,NA,NA,NA,NA,NA,NA,NA,NA,NA,NA,NA,NA,NA,"[]","middle",2,"sch",3,1,3,4,3,4,4,1,"28371","54","female","woman","","caucasian","","No","",""
"2","5ddc3ccd108b67ba3b7efa5a","svTrial","survey",9,94888,"0.0-2.0-7.0","65553732575bb29198a888d7","65565b67265de39dba30d3df",1,"16062","Tokyo_large_sch_11_1.jpg",NA,NA,NA,NA,NA,NA,NA,NA,NA,NA,NA,NA,NA,NA,NA,NA,"[]","small",1,"sch",11,2,4,3,3,4,3,1,"28371","54","female","woman","","caucasian","","No","",""
"3","5ddc3ccd108b67ba3b7efa5a","svTrial","survey",10,109113,"0.0-2.0-8.0","65553732575bb29198a888d7","65565b67265de39dba30d3df",1,"14217","Kanagawa_large_pos_12_0.jpg",NA,NA,NA,NA,NA,NA,NA,NA,NA,NA,NA,NA,NA,NA,NA,NA,"[]","middle",1,"sch",12,3,4,2,2,2,3,1,"28371","54","female","woman","","caucasian","","No","",""
"4","5ddc3ccd108b67ba3b7efa5a","svTrial","survey",11,127650,"0.0-2.0-9.0","65553732575bb29198a888d7","65565b67265de39dba30d3df",1,"18527","Toyama_small_pos_3_2.jpg",NA,NA,NA,NA,NA,NA,NA,NA,NA,NA,NA,NA,NA,NA,NA,NA,"[]","large",2,"sch",3,4,2,4,2,2,2,1,"28371","54","female","woman","","caucasian","","No","",""
"5","5ddc3ccd108b67ba3b7efa5a","svTrial","survey",12,142196,"0.0-2.0-10.0","65553732575bb29198a888d7","65565b67265de39dba30d3df",1,"14539","Tokyo_large_pos_1_2.jpg",NA,NA,NA,NA,NA,NA,NA,NA,NA,NA,NA,NA,NA,NA,NA,NA,"[]","large",1,"pos",1,5,2,4,2,2,2,1,"28371","54","female","woman","","caucasian","","No","",""
"6","5ddc3ccd108b67ba3b7efa5a","svTrial","survey",13,156437,"0.0-2.0-11.0","65553732575bb29198a888d7","65565b67265de39dba30d3df",1,"14233","Niigata_middle_sch_8_2.jpg",NA,NA,NA,NA,NA,NA,NA,NA,NA,NA,NA,NA,NA,NA,NA,NA,"[]","middle",2,"pos",8,6,4,4,3,4,4,1,"28371","54","female","woman","","caucasian","","No","",""
"7","5ddc3ccd108b67ba3b7efa5a","svTrial","survey",14,170060,"0.0-2.0-12.0","65553732575bb29198a888d7","65565b67265de39dba30d3df",1,"13605","Toyama_large_sch_11_1.jpg",NA,NA,NA,NA,NA,NA,NA,NA,NA,NA,NA,NA,NA,NA,NA,NA,"[]","middle",2,"sch",11,7,1,2,2,3,2,1,"28371","54","female","woman","","caucasian","","No","",""
"8","5ddc3ccd108b67ba3b7efa5a","svTrial","survey",15,184095,"0.0-2.0-13.0","65553732575bb29198a888d7","65565b67265de39dba30d3df",1,"14021","Niigata_small_sch_4_1.jpg",NA,NA,NA,NA,NA,NA,NA,NA,NA,NA,NA,NA,NA,NA,NA,NA,"[]","large",2,"sch",4,8,1,2,1,1,1,1,"28371","54","female","woman","","caucasian","","No","",""
"9","5ddc3ccd108b67ba3b7efa5a","svTrial","survey",16,203954,"0.0-2.0-14.0","65553732575bb29198a888d7","65565b67265de39dba30d3df",1,"19849","Kanagawa_middle_sch_6_0.jpg",NA,NA,NA,NA,NA,NA,NA,NA,NA,NA,NA,NA,NA,NA,NA,NA,"[]","small",1,"sch",6,9,1,2,2,2,1,1,"28371","54","female","woman","","caucasian","","No","",""
"10","5ddc3ccd108b67ba3b7efa5a","svTrial","survey",17,221933,"0.0-2.0-15.0","65553732575bb29198a888d7","65565b67265de39dba30d3df",1,"17974","Hokkaido_middle_pos_2_2.jpg",NA,NA,NA,NA,NA,NA,NA,NA,NA,NA,NA,NA,NA,NA,NA,NA,"[]","small",1,"pos",2,10,2,4,2,3,2,1,"28371","54","female","woman","","caucasian","","No","",""
"11","5ddc3ccd108b67ba3b7efa5a","svTrial","survey",18,247749,"0.0-2.0-16.0","65553732575bb29198a888d7","65565b67265de39dba30d3df",1,"25799","Toyama_large_pos_7_0.jpg",NA,NA,NA,NA,NA,NA,NA,NA,NA,NA,NA,NA,NA,NA,NA,NA,"[]","large",2,"sch",7,11,3,3,2,3,3,1,"28371","54","female","woman","","caucasian","","No","",""
"12","5ddc3ccd108b67ba3b7efa5a","svTrial","survey",19,262933,"0.0-2.0-17.0","65553732575bb29198a888d7","65565b67265de39dba30d3df",1,"15175","Niigata_middle_pos_3_1.jpg",NA,NA,NA,NA,NA,NA,NA,NA,NA,NA,NA,NA,NA,NA,NA,NA,"[]","large",2,"pos",3,12,1,2,1,1,1,1,"28371","54","female","woman","","caucasian","","No","",""
"13","5ddc3ccd108b67ba3b7efa5a","svTrial","survey",20,277156,"0.0-2.0-18.0","65553732575bb29198a888d7","65565b67265de39dba30d3df",1,"14216","Kanagawa_small_sch_2_3.jpg",NA,NA,NA,NA,NA,NA,NA,NA,NA,NA,NA,NA,NA,NA,NA,NA,"[]","large",1,"sch",2,13,4,4,3,2,2,1,"28371","54","female","woman","","caucasian","","No","",""
"14","5ddc3ccd108b67ba3b7efa5a","svTrial","survey",21,295288,"0.0-2.0-19.0","65553732575bb29198a888d7","65565b67265de39dba30d3df",1,"18113","Tokyo_large_pos_4_0.jpg",NA,NA,NA,NA,NA,NA,NA,NA,NA,NA,NA,NA,NA,NA,NA,NA,"[]","large",1,"pos",4,14,4,3,3,3,2,1,"28371","54","female","woman","","caucasian","","No","",""
"15","5ddc3ccd108b67ba3b7efa5a","svTrial","survey",22,311687,"0.0-2.0-20.0","65553732575bb29198a888d7","65565b67265de39dba30d3df",1,"16390","Kanagawa_middle_pos_7_0.jpg",NA,NA,NA,NA,NA,NA,NA,NA,NA,NA,NA,NA,NA,NA,NA,NA,"[]","middle",1,"sch",7,15,2,3,2,2,2,1,"28371","54","female","woman","","caucasian","","No","",""
"16","5ddc3ccd108b67ba3b7efa5a","svTrial","survey",23,324750,"0.0-2.0-21.0","65553732575bb29198a888d7","65565b67265de39dba30d3df",1,"13054","Okinawa_large_sch_6_3.jpg",NA,NA,NA,NA,NA,NA,NA,NA,NA,NA,NA,NA,NA,NA,NA,NA,"[]","large",1,"sch",6,16,3,3,3,2,2,1,"28371","54","female","woman","","caucasian","","No","",""
"17","5ddc3ccd108b67ba3b7efa5a","svTrial","survey",24,347356,"0.0-2.0-22.0","65553732575bb29198a888d7","65565b67265de39dba30d3df",1,"22601","Hokkaido_large_sch_12_2.jpg",NA,NA,NA,NA,NA,NA,NA,NA,NA,NA,NA,NA,NA,NA,NA,NA,"[]","small",1,"sch",12,17,1,2,2,1,1,1,"28371","54","female","woman","","caucasian","","No","",""
"18","5ddc3ccd108b67ba3b7efa5a","svTrial","survey",25,365437,"0.0-2.0-23.0","65553732575bb29198a888d7","65565b67265de39dba30d3df",1,"18065","Toyama_large_pos_10_3.jpg",NA,NA,NA,NA,NA,NA,NA,NA,NA,NA,NA,NA,NA,NA,NA,NA,"[]","small",2,"sch",10,18,2,1,1,1,1,1,"28371","54","female","woman","","caucasian","","No","",""
"19","5ddc3ccd108b67ba3b7efa5a","svTrial","survey",26,385189,"0.0-2.0-24.0","65553732575bb29198a888d7","65565b67265de39dba30d3df",1,"19744","Ishikawa_middle_pos_2_2.jpg",NA,NA,NA,NA,NA,NA,NA,NA,NA,NA,NA,NA,NA,NA,NA,NA,"[]","middle",2,"sch",2,19,3,4,2,2,2,1,"28371","54","female","woman","","caucasian","","No","",""
"20","5ddc3ccd108b67ba3b7efa5a","svTrial","survey",27,399993,"0.0-2.0-25.0","65553732575bb29198a888d7","65565b67265de39dba30d3df",1,"14796","Kanagawa_large_pos_1_2.jpg",NA,NA,NA,NA,NA,NA,NA,NA,NA,NA,NA,NA,NA,NA,NA,NA,"[]","large",1,"sch",1,20,3,4,2,3,3,1,"28371","54","female","woman","","caucasian","","No","",""
"21","5ddc3ccd108b67ba3b7efa5a","svTrial","survey",28,417851,"0.0-2.0-26.0","65553732575bb29198a888d7","65565b67265de39dba30d3df",1,"17851","Hokkaido_large_sch_1_2.jpg",NA,NA,NA,NA,NA,NA,NA,NA,NA,NA,NA,NA,NA,NA,NA,NA,"[]","large",1,"sch",1,21,4,2,2,2,2,1,"28371","54","female","woman","","caucasian","","No","",""
"22","5ddc3ccd108b67ba3b7efa5a","svTrial","survey",29,437043,"0.0-2.0-27.0","65553732575bb29198a888d7","65565b67265de39dba30d3df",1,"19170","Niigata_small_sch_1_0.jpg",NA,NA,NA,NA,NA,NA,NA,NA,NA,NA,NA,NA,NA,NA,NA,NA,"[]","middle",2,"sch",1,22,4,3,2,3,3,1,"28371","54","female","woman","","caucasian","","No","",""
"23","5ddc3ccd108b67ba3b7efa5a","svTrial","survey",30,526030,"0.0-2.0-28.0","65553732575bb29198a888d7","65565b67265de39dba30d3df",1,"88978","Tokyo_small_pos_3_0.jpg",NA,NA,NA,NA,NA,NA,NA,NA,NA,NA,NA,NA,NA,NA,NA,NA,"[]","middle",1,"sch",3,23,2,3,2,2,2,1,"28371","54","female","woman","","caucasian","","No","",""
"24","5ddc3ccd108b67ba3b7efa5a","svTrial","survey",31,538056,"0.0-2.0-29.0","65553732575bb29198a888d7","65565b67265de39dba30d3df",1,"12010","Hokkaido_large_pos_3_1.jpg",NA,NA,NA,NA,NA,NA,NA,NA,NA,NA,NA,NA,NA,NA,NA,NA,"[]","middle",1,"pos",3,24,2,3,2,1,1,1,"28371","54","female","woman","","caucasian","","No","",""
"25","5ddc3ccd108b67ba3b7efa5a","svTrial","survey",33,572336,"0.0-2.0-31.0","65553732575bb29198a888d7","65565b67265de39dba30d3df",1,"18504","Niigata_large_sch_1_3.jpg",NA,NA,NA,NA,NA,NA,NA,NA,NA,NA,NA,NA,NA,NA,NA,NA,"[]","middle",2,"pos",1,25,3,2,3,2,2,1,"28371","54","female","woman","","caucasian","","No","",""
"26","5ddc3ccd108b67ba3b7efa5a","svTrial","survey",34,584891,"0.0-2.0-32.0","65553732575bb29198a888d7","65565b67265de39dba30d3df",1,"12547","Niigata_large_sch_2_3.jpg",NA,NA,NA,NA,NA,NA,NA,NA,NA,NA,NA,NA,NA,NA,NA,NA,"[]","middle",2,"sch",2,26,3,3,4,2,2,1,"28371","54","female","woman","","caucasian","","No","",""
"27","5ddc3ccd108b67ba3b7efa5a","svTrial","survey",35,606066,"0.0-2.0-33.0","65553732575bb29198a888d7","65565b67265de39dba30d3df",1,"21167","Tokyo_large_sch_10_0.jpg",NA,NA,NA,NA,NA,NA,NA,NA,NA,NA,NA,NA,NA,NA,NA,NA,"[]","middle",1,"pos",10,27,4,3,2,3,2,1,"28371","54","female","woman","","caucasian","","No","",""
"28","5ddc3ccd108b67ba3b7efa5a","svTrial","survey",36,617657,"0.0-2.0-34.0","65553732575bb29198a888d7","65565b67265de39dba30d3df",1,"11572","Niigata_large_sch_10_1.jpg",NA,NA,NA,NA,NA,NA,NA,NA,NA,NA,NA,NA,NA,NA,NA,NA,"[]","large",2,"sch",10,28,2,2,2,1,1,1,"28371","54","female","woman","","caucasian","","No","",""
"29","5ddc3ccd108b67ba3b7efa5a","svTrial","survey",37,631227,"0.0-2.0-35.0","65553732575bb29198a888d7","65565b67265de39dba30d3df",1,"13560","Niigata_large_sch_9_0.jpg",NA,NA,NA,NA,NA,NA,NA,NA,NA,NA,NA,NA,NA,NA,NA,NA,"[]","middle",2,"sch",9,29,3,3,2,1,1,1,"28371","54","female","woman","","caucasian","","No","",""
"30","5ddc3ccd108b67ba3b7efa5a","svTrial","survey",38,642039,"0.0-2.0-36.0","65553732575bb29198a888d7","65565b67265de39dba30d3df",1,"10805","Hokkaido_middle_pos_6_0.jpg",NA,NA,NA,NA,NA,NA,NA,NA,NA,NA,NA,NA,NA,NA,NA,NA,"[]","large",1,"sch",6,30,1,1,1,1,1,1,"28371","54","female","woman","","caucasian","","No","",""
"31","5ddc3ccd108b67ba3b7efa5a","svTrial","survey",39,651733,"0.0-2.0-37.0","65553732575bb29198a888d7","65565b67265de39dba30d3df",1,"9686","Toyama_middle_sch_5_2.jpg",NA,NA,NA,NA,NA,NA,NA,NA,NA,NA,NA,NA,NA,NA,NA,NA,"[]","middle",2,"sch",5,31,2,2,1,1,2,1,"28371","54","female","woman","","caucasian","","No","",""
"32","5ddc3ccd108b67ba3b7efa5a","svTrial","survey",40,669390,"0.0-2.0-38.0","65553732575bb29198a888d7","65565b67265de39dba30d3df",1,"17650","Kanagawa_large_pos_10_3.jpg",NA,NA,NA,NA,NA,NA,NA,NA,NA,NA,NA,NA,NA,NA,NA,NA,"[]","small",1,"pos",10,32,3,4,2,2,2,1,"28371","54","female","woman","","caucasian","","No","",""
"33","5ddc3ccd108b67ba3b7efa5a","svTrial","survey",41,681612,"0.0-2.0-39.0","65553732575bb29198a888d7","65565b67265de39dba30d3df",1,"12203","Tokyo_middle_sch_5_1.jpg",NA,NA,NA,NA,NA,NA,NA,NA,NA,NA,NA,NA,NA,NA,NA,NA,"[]","small",1,"sch",5,33,3,3,4,2,2,1,"28371","54","female","woman","","caucasian","","No","",""
"34","5ddc3ccd108b67ba3b7efa5a","svTrial","survey",42,694023,"0.0-2.0-40.0","65553732575bb29198a888d7","65565b67265de39dba30d3df",1,"12401","Hokkaido_large_pos_11_3.jpg",NA,NA,NA,NA,NA,NA,NA,NA,NA,NA,NA,NA,NA,NA,NA,NA,"[]","small",1,"pos",11,34,3,3,2,1,1,1,"28371","54","female","woman","","caucasian","","No","",""
"35","5ddc3ccd108b67ba3b7efa5a","svTrial","survey",43,708025,"0.0-2.0-41.0","65553732575bb29198a888d7","65565b67265de39dba30d3df",1,"13992","Tokyo_large_pos_12_3.jpg",NA,NA,NA,NA,NA,NA,NA,NA,NA,NA,NA,NA,NA,NA,NA,NA,"[]","middle",1,"pos",12,35,3,3,2,2,1,1,"28371","54","female","woman","","caucasian","","No","",""
"36","5ddc3ccd108b67ba3b7efa5a","svTrial","survey",44,718149,"0.0-2.0-42.0","65553732575bb29198a888d7","65565b67265de39dba30d3df",1,"10116","Akita_middle_sch_4_1.jpg",NA,NA,NA,NA,NA,NA,NA,NA,NA,NA,NA,NA,NA,NA,NA,NA,"[]","small",2,"sch",4,36,4,2,2,2,2,1,"28371","54","female","woman","","caucasian","","No","",""
"37","5ddc3ccd108b67ba3b7efa5a","svTrial","survey",45,730466,"0.0-2.0-43.0","65553732575bb29198a888d7","65565b67265de39dba30d3df",1,"12310","Niigata_middle_sch_2_3.jpg",NA,NA,NA,NA,NA,NA,NA,NA,NA,NA,NA,NA,NA,NA,NA,NA,"[]","large",2,"pos",2,37,1,1,1,1,1,1,"28371","54","female","woman","","caucasian","","No","",""
"38","5ddc3ccd108b67ba3b7efa5a","svTrial","survey",47,753980,"0.0-2.0-45.0","65553732575bb29198a888d7","65565b67265de39dba30d3df",1,"16968","Okinawa_large_pos_12_2.jpg",NA,NA,NA,NA,NA,NA,NA,NA,NA,NA,NA,NA,NA,NA,NA,NA,"[]","large",1,"sch",12,38,3,4,2,3,3,1,"28371","54","female","woman","","caucasian","","No","",""
"39","5ddc3ccd108b67ba3b7efa5a","svTrial","survey",48,767568,"0.0-2.0-46.0","65553732575bb29198a888d7","65565b67265de39dba30d3df",1,"13578","Akita_small_sch_4_0.jpg",NA,NA,NA,NA,NA,NA,NA,NA,NA,NA,NA,NA,NA,NA,NA,NA,"[]","large",2,"sch",4,39,1,2,1,1,1,1,"28371","54","female","woman","","caucasian","","No","",""
"40","5ddc3ccd108b67ba3b7efa5a","svTrial","survey",49,783424,"0.0-2.0-47.0","65553732575bb29198a888d7","65565b67265de39dba30d3df",1,"15848","Akita_large_pos_2_0.jpg",NA,NA,NA,NA,NA,NA,NA,NA,NA,NA,NA,NA,NA,NA,NA,NA,"[]","middle",2,"pos",2,40,2,3,2,2,2,1,"28371","54","female","woman","","caucasian","","No","",""
"41","5ddc3ccd108b67ba3b7efa5a","svTrial","survey",50,799490,"0.0-2.0-48.0","65553732575bb29198a888d7","65565b67265de39dba30d3df",1,"16059","Niigata_middle_sch_7_2.jpg",NA,NA,NA,NA,NA,NA,NA,NA,NA,NA,NA,NA,NA,NA,NA,NA,"[]","middle",2,"pos",7,41,2,2,2,1,1,1,"28371","54","female","woman","","caucasian","","No","",""
"42","5ddc3ccd108b67ba3b7efa5a","svTrial","survey",51,819460,"0.0-2.0-49.0","65553732575bb29198a888d7","65565b67265de39dba30d3df",1,"19953","Niigata_large_sch_11_1.jpg",NA,NA,NA,NA,NA,NA,NA,NA,NA,NA,NA,NA,NA,NA,NA,NA,"[]","middle",2,"pos",11,42,1,2,3,2,1,1,"28371","54","female","woman","","caucasian","","No","",""
"43","5ddc3ccd108b67ba3b7efa5a","svTrial","survey",52,832897,"0.0-2.0-50.0","65553732575bb29198a888d7","65565b67265de39dba30d3df",1,"13427","Akita_large_sch_2_0.jpg",NA,NA,NA,NA,NA,NA,NA,NA,NA,NA,NA,NA,NA,NA,NA,NA,"[]","middle",2,"sch",2,43,2,3,2,1,1,1,"28371","54","female","woman","","caucasian","","No","",""
"44","5ddc3ccd108b67ba3b7efa5a","svTrial","survey",53,856136,"0.0-2.0-51.0","65553732575bb29198a888d7","65565b67265de39dba30d3df",1,"23231","Tokyo_large_sch_9_2.jpg",NA,NA,NA,NA,NA,NA,NA,NA,NA,NA,NA,NA,NA,NA,NA,NA,"[]","middle",1,"sch",9,44,2,2,2,2,2,1,"28371","54","female","woman","","caucasian","","No","",""
"45","5ddc3ccd108b67ba3b7efa5a","svTrial","survey",54,869345,"0.0-2.0-52.0","65553732575bb29198a888d7","65565b67265de39dba30d3df",1,"13194","Okinawa_large_sch_11_2.jpg",NA,NA,NA,NA,NA,NA,NA,NA,NA,NA,NA,NA,NA,NA,NA,NA,"[]","middle",1,"pos",11,45,1,1,3,1,2,1,"28371","54","female","woman","","caucasian","","No","",""
"46","5ddc3ccd108b67ba3b7efa5a","svTrial","survey",55,889527,"0.0-2.0-53.0","65553732575bb29198a888d7","65565b67265de39dba30d3df",1,"20164","Toyama_middle_pos_8_1.jpg",NA,NA,NA,NA,NA,NA,NA,NA,NA,NA,NA,NA,NA,NA,NA,NA,"[]","middle",2,"pos",8,46,2,2,2,1,1,1,"28371","54","female","woman","","caucasian","","No","",""
"47","5ddc3ccd108b67ba3b7efa5a","svTrial","survey",56,906508,"0.0-2.0-54.0","65553732575bb29198a888d7","65565b67265de39dba30d3df",1,"16972","Ishikawa_large_pos_11_0.jpg",NA,NA,NA,NA,NA,NA,NA,NA,NA,NA,NA,NA,NA,NA,NA,NA,"[]","middle",2,"sch",11,47,3,2,1,2,2,1,"28371","54","female","woman","","caucasian","","No","",""
"48","5ddc3ccd108b67ba3b7efa5a","svTrial","survey",57,932347,"0.0-2.0-55.0","65553732575bb29198a888d7","65565b67265de39dba30d3df",1,"25832","Okinawa_large_pos_10_2.jpg",NA,NA,NA,NA,NA,NA,NA,NA,NA,NA,NA,NA,NA,NA,NA,NA,"[]","middle",1,"sch",10,48,2,2,2,3,2,1,"28371","54","female","woman","","caucasian","","No","",""
