"","subject_id","task","trial_type","trial_index","time_elapsed","internal_node_id","study_id","session_id","group","rt","stimulus","width","height","webaudio","browser","browser_version","mobile","os","fullscreen","vsync_rate","webcam","microphone","success","timeout","failed_images","failed_audio","failed_video","accuracy","size","culture","loct","number","document.id","ambiguous","objects","invisible","chaos","complex","passedChecks","zipcode","age","sex","gender","gender-self-describe","ethnicity","ethnicity-self-describe","outsideUS","outsideUS_years","surveyComments"
"1","5dfda52097234ba7a779bea7","svTrial","survey",8,158796,"0.0-2.0-6.0","65553732575bb29198a888d7","65565a39589c16e683d92654",1,"31577","Niigata_large_sch_9_2.jpg",NA,NA,NA,NA,NA,NA,NA,NA,NA,NA,NA,NA,NA,NA,NA,NA,"[]","middle",2,"sch",9,1,3,NA,4,4,4,1,"85282","39","female","woman","","middle-eastern","","No","",""
"2","5dfda52097234ba7a779bea7","svTrial","survey",9,215668,"0.0-2.0-7.0","65553732575bb29198a888d7","65565a39589c16e683d92654",1,"56814","Toyama_middle_sch_5_1.jpg",NA,NA,NA,NA,NA,NA,NA,NA,NA,NA,NA,NA,NA,NA,NA,NA,"[]","middle",2,"sch",5,2,3,5,3,2,2,1,"85282","39","female","woman","","middle-eastern","","No","",""
"3","5dfda52097234ba7a779bea7","svTrial","survey",11,293149,"0.0-2.0-9.0","65553732575bb29198a888d7","65565a39589c16e683d92654",1,"37589","Hokkaido_middle_pos_2_0.jpg",NA,NA,NA,NA,NA,NA,NA,NA,NA,NA,NA,NA,NA,NA,NA,NA,"[]","small",1,"pos",2,3,1,5,1,1,1,1,"85282","39","female","woman","","middle-eastern","","No","",""
"4","5dfda52097234ba7a779bea7","svTrial","survey",12,318267,"0.0-2.0-10.0","65553732575bb29198a888d7","65565a39589c16e683d92654",1,"25055","Tokyo_large_sch_9_0.jpg",NA,NA,NA,NA,NA,NA,NA,NA,NA,NA,NA,NA,NA,NA,NA,NA,"[]","middle",1,"sch",9,4,1,1,2,1,1,1,"85282","39","female","woman","","middle-eastern","","No","",""
"5","5dfda52097234ba7a779bea7","svTrial","survey",13,436092,"0.0-2.0-11.0","65553732575bb29198a888d7","65565a39589c16e683d92654",1,"117763","Kanagawa_middle_sch_6_3.jpg",NA,NA,NA,NA,NA,NA,NA,NA,NA,NA,NA,NA,NA,NA,NA,NA,"[]","small",1,"sch",6,5,2,4,3,1,1,1,"85282","39","female","woman","","middle-eastern","","No","",""
"6","5dfda52097234ba7a779bea7","svTrial","survey",14,462167,"0.0-2.0-12.0","65553732575bb29198a888d7","65565a39589c16e683d92654",1,"25986","Tokyo_large_pos_4_1.jpg",NA,NA,NA,NA,NA,NA,NA,NA,NA,NA,NA,NA,NA,NA,NA,NA,"[]","large",1,"pos",4,6,4,3,4,2,2,1,"85282","39","female","woman","","middle-eastern","","No","",""
"7","5dfda52097234ba7a779bea7","svTrial","survey",15,520034,"0.0-2.0-13.0","65553732575bb29198a888d7","65565a39589c16e683d92654",1,"57795","Kanagawa_large_pos_1_0.jpg",NA,NA,NA,NA,NA,NA,NA,NA,NA,NA,NA,NA,NA,NA,NA,NA,"[]","large",1,"sch",1,7,4,4,4,2,2,1,"85282","39","female","woman","","middle-eastern","","No","",""
"8","5dfda52097234ba7a779bea7","svTrial","survey",16,545102,"0.0-2.0-14.0","65553732575bb29198a888d7","65565a39589c16e683d92654",1,"25013","Akita_large_sch_2_1.jpg",NA,NA,NA,NA,NA,NA,NA,NA,NA,NA,NA,NA,NA,NA,NA,NA,"[]","middle",2,"sch",2,8,2,2,3,1,2,1,"85282","39","female","woman","","middle-eastern","","No","",""
"9","5dfda52097234ba7a779bea7","svTrial","survey",17,568269,"0.0-2.0-15.0","65553732575bb29198a888d7","65565a39589c16e683d92654",1,"23087","Akita_middle_sch_4_0.jpg",NA,NA,NA,NA,NA,NA,NA,NA,NA,NA,NA,NA,NA,NA,NA,NA,"[]","small",2,"sch",4,9,5,5,5,1,3,1,"85282","39","female","woman","","middle-eastern","","No","",""
"10","5dfda52097234ba7a779bea7","svTrial","survey",18,600273,"0.0-2.0-16.0","65553732575bb29198a888d7","65565a39589c16e683d92654",1,"31957","Okinawa_large_sch_11_1.jpg",NA,NA,NA,NA,NA,NA,NA,NA,NA,NA,NA,NA,NA,NA,NA,NA,"[]","middle",1,"pos",11,10,4,5,4,1,1,1,"85282","39","female","woman","","middle-eastern","","No","",""
"11","5dfda52097234ba7a779bea7","svTrial","survey",19,689716,"0.0-2.0-17.0","65553732575bb29198a888d7","65565a39589c16e683d92654",1,"89380","Tokyo_small_pos_3_1.jpg",NA,NA,NA,NA,NA,NA,NA,NA,NA,NA,NA,NA,NA,NA,NA,NA,"[]","middle",1,"sch",3,11,3,5,4,2,2,1,"85282","39","female","woman","","middle-eastern","","No","",""
"12","5dfda52097234ba7a779bea7","svTrial","survey",20,722777,"0.0-2.0-18.0","65553732575bb29198a888d7","65565a39589c16e683d92654",1,"33005","Okinawa_large_pos_10_1.jpg",NA,NA,NA,NA,NA,NA,NA,NA,NA,NA,NA,NA,NA,NA,NA,NA,"[]","middle",1,"sch",10,12,3,4,4,1,3,1,"85282","39","female","woman","","middle-eastern","","No","",""
"13","5dfda52097234ba7a779bea7","svTrial","survey",21,745972,"0.0-2.0-19.0","65553732575bb29198a888d7","65565a39589c16e683d92654",1,"23143","Hokkaido_large_pos_11_3.jpg",NA,NA,NA,NA,NA,NA,NA,NA,NA,NA,NA,NA,NA,NA,NA,NA,"[]","small",1,"pos",11,13,2,3,4,1,2,1,"85282","39","female","woman","","middle-eastern","","No","",""
"14","5dfda52097234ba7a779bea7","svTrial","survey",22,808179,"0.0-2.0-20.0","65553732575bb29198a888d7","65565a39589c16e683d92654",1,"62158","Akita_large_pos_2_1.jpg",NA,NA,NA,NA,NA,NA,NA,NA,NA,NA,NA,NA,NA,NA,NA,NA,"[]","middle",2,"pos",2,14,3,3,3,1,1,1,"85282","39","female","woman","","middle-eastern","","No","",""
"15","5dfda52097234ba7a779bea7","svTrial","survey",23,833043,"0.0-2.0-21.0","65553732575bb29198a888d7","65565a39589c16e683d92654",1,"24809","Toyama_large_pos_7_2.jpg",NA,NA,NA,NA,NA,NA,NA,NA,NA,NA,NA,NA,NA,NA,NA,NA,"[]","large",2,"sch",7,15,4,5,4,2,2,1,"85282","39","female","woman","","middle-eastern","","No","",""
"16","5dfda52097234ba7a779bea7","svTrial","survey",24,860570,"0.0-2.0-22.0","65553732575bb29198a888d7","65565a39589c16e683d92654",1,"27467","Niigata_small_sch_1_1.jpg",NA,NA,NA,NA,NA,NA,NA,NA,NA,NA,NA,NA,NA,NA,NA,NA,"[]","middle",2,"sch",1,16,2,3,3,2,2,1,"85282","39","female","woman","","middle-eastern","","No","",""
"17","5dfda52097234ba7a779bea7","svTrial","survey",25,942687,"0.0-2.0-23.0","65553732575bb29198a888d7","65565a39589c16e683d92654",1,"82014","Niigata_middle_pos_3_0.jpg",NA,NA,NA,NA,NA,NA,NA,NA,NA,NA,NA,NA,NA,NA,NA,NA,"[]","large",2,"pos",3,17,5,5,4,2,4,1,"85282","39","female","woman","","middle-eastern","","No","",""
"18","5dfda52097234ba7a779bea7","svTrial","survey",26,965779,"0.0-2.0-24.0","65553732575bb29198a888d7","65565a39589c16e683d92654",1,"23038","Tokyo_large_sch_11_2.jpg",NA,NA,NA,NA,NA,NA,NA,NA,NA,NA,NA,NA,NA,NA,NA,NA,"[]","small",1,"sch",11,18,4,4,4,4,4,1,"85282","39","female","woman","","middle-eastern","","No","",""
"19","5dfda52097234ba7a779bea7","svTrial","survey",27,986139,"0.0-2.0-25.0","65553732575bb29198a888d7","65565a39589c16e683d92654",1,"20295","Kanagawa_small_sch_2_3.jpg",NA,NA,NA,NA,NA,NA,NA,NA,NA,NA,NA,NA,NA,NA,NA,NA,"[]","large",1,"sch",2,19,5,5,4,2,2,1,"85282","39","female","woman","","middle-eastern","","No","",""
"20","5dfda52097234ba7a779bea7","svTrial","survey",28,1006039,"0.0-2.0-26.0","65553732575bb29198a888d7","65565a39589c16e683d92654",1,"19837","Tokyo_middle_sch_5_3.jpg",NA,NA,NA,NA,NA,NA,NA,NA,NA,NA,NA,NA,NA,NA,NA,NA,"[]","small",1,"sch",5,20,2,4,NA,3,3,1,"85282","39","female","woman","","middle-eastern","","No","",""
"21","5dfda52097234ba7a779bea7","svTrial","survey",29,1044826,"0.0-2.0-27.0","65553732575bb29198a888d7","65565a39589c16e683d92654",1,"38730","Niigata_large_sch_2_0.jpg",NA,NA,NA,NA,NA,NA,NA,NA,NA,NA,NA,NA,NA,NA,NA,NA,"[]","middle",2,"sch",2,21,4,4,3,3,4,1,"85282","39","female","woman","","middle-eastern","","No","",""
"22","5dfda52097234ba7a779bea7","svTrial","survey",30,1061638,"0.0-2.0-28.0","65553732575bb29198a888d7","65565a39589c16e683d92654",1,"16754","Akita_small_sch_4_0.jpg",NA,NA,NA,NA,NA,NA,NA,NA,NA,NA,NA,NA,NA,NA,NA,NA,"[]","large",2,"sch",4,22,2,2,3,1,1,1,"85282","39","female","woman","","middle-eastern","","No","",""
"23","5dfda52097234ba7a779bea7","svTrial","survey",31,1076939,"0.0-2.0-29.0","65553732575bb29198a888d7","65565a39589c16e683d92654",1,"15221","Hokkaido_large_sch_1_3.jpg",NA,NA,NA,NA,NA,NA,NA,NA,NA,NA,NA,NA,NA,NA,NA,NA,"[]","large",1,"sch",1,23,1,1,1,1,1,1,"85282","39","female","woman","","middle-eastern","","No","",""
"24","5dfda52097234ba7a779bea7","svTrial","survey",32,1093660,"0.0-2.0-30.0","65553732575bb29198a888d7","65565a39589c16e683d92654",1,"16623","Toyama_small_pos_3_2.jpg",NA,NA,NA,NA,NA,NA,NA,NA,NA,NA,NA,NA,NA,NA,NA,NA,"[]","large",2,"sch",3,24,2,2,2,2,1,1,"85282","39","female","woman","","middle-eastern","","No","",""
"25","5dfda52097234ba7a779bea7","svTrial","survey",34,1135399,"0.0-2.0-32.0","65553732575bb29198a888d7","65565a39589c16e683d92654",1,"29151","Okinawa_large_sch_6_0.jpg",NA,NA,NA,NA,NA,NA,NA,NA,NA,NA,NA,NA,NA,NA,NA,NA,"[]","large",1,"sch",6,25,3,3,4,2,2,1,"85282","39","female","woman","","middle-eastern","","No","",""
"26","5dfda52097234ba7a779bea7","svTrial","survey",35,1196265,"0.0-2.0-33.0","65553732575bb29198a888d7","65565a39589c16e683d92654",1,"60811","Kanagawa_middle_pos_7_2.jpg",NA,NA,NA,NA,NA,NA,NA,NA,NA,NA,NA,NA,NA,NA,NA,NA,"[]","middle",1,"sch",7,26,2,4,3,2,1,1,"85282","39","female","woman","","middle-eastern","","No","",""
"27","5dfda52097234ba7a779bea7","svTrial","survey",36,1227324,"0.0-2.0-34.0","65553732575bb29198a888d7","65565a39589c16e683d92654",1,"31000","Niigata_middle_sch_2_3.jpg",NA,NA,NA,NA,NA,NA,NA,NA,NA,NA,NA,NA,NA,NA,NA,NA,"[]","large",2,"pos",2,27,2,1,1,1,1,1,"85282","39","female","woman","","middle-eastern","","No","",""
"28","5dfda52097234ba7a779bea7","svTrial","survey",37,1243027,"0.0-2.0-35.0","65553732575bb29198a888d7","65565a39589c16e683d92654",1,"15648","Hokkaido_large_pos_3_2.jpg",NA,NA,NA,NA,NA,NA,NA,NA,NA,NA,NA,NA,NA,NA,NA,NA,"[]","middle",1,"pos",3,28,3,3,3,1,1,1,"85282","39","female","woman","","middle-eastern","","No","",""
"29","5dfda52097234ba7a779bea7","svTrial","survey",38,1290608,"0.0-2.0-36.0","65553732575bb29198a888d7","65565a39589c16e683d92654",1,"47519","Niigata_small_sch_4_0.jpg",NA,NA,NA,NA,NA,NA,NA,NA,NA,NA,NA,NA,NA,NA,NA,NA,"[]","large",2,"sch",4,29,3,5,4,2,2,1,"85282","39","female","woman","","middle-eastern","","No","",""
"30","5dfda52097234ba7a779bea7","svTrial","survey",39,1329324,"0.0-2.0-37.0","65553732575bb29198a888d7","65565a39589c16e683d92654",1,"38660","Tokyo_large_pos_1_3.jpg",NA,NA,NA,NA,NA,NA,NA,NA,NA,NA,NA,NA,NA,NA,NA,NA,"[]","large",1,"pos",1,30,1,2,3,2,2,1,"85282","39","female","woman","","middle-eastern","","No","",""
"31","5dfda52097234ba7a779bea7","svTrial","survey",40,1350779,"0.0-2.0-38.0","65553732575bb29198a888d7","65565a39589c16e683d92654",1,"21399","Toyama_large_pos_10_3.jpg",NA,NA,NA,NA,NA,NA,NA,NA,NA,NA,NA,NA,NA,NA,NA,NA,"[]","small",2,"sch",10,31,2,2,2,1,1,1,"85282","39","female","woman","","middle-eastern","","No","",""
"32","5dfda52097234ba7a779bea7","svTrial","survey",41,1407206,"0.0-2.0-39.0","65553732575bb29198a888d7","65565a39589c16e683d92654",1,"56371","Toyama_large_sch_11_2.jpg",NA,NA,NA,NA,NA,NA,NA,NA,NA,NA,NA,NA,NA,NA,NA,NA,"[]","middle",2,"sch",11,32,2,3,3,2,2,1,"85282","39","female","woman","","middle-eastern","","No","",""
"33","5dfda52097234ba7a779bea7","svTrial","survey",42,1438282,"0.0-2.0-40.0","65553732575bb29198a888d7","65565a39589c16e683d92654",1,"31017","Tokyo_large_pos_12_0.jpg",NA,NA,NA,NA,NA,NA,NA,NA,NA,NA,NA,NA,NA,NA,NA,NA,"[]","middle",1,"pos",12,33,1,1,4,1,1,1,"85282","39","female","woman","","middle-eastern","","No","",""
"34","5dfda52097234ba7a779bea7","svTrial","survey",43,1461653,"0.0-2.0-41.0","65553732575bb29198a888d7","65565a39589c16e683d92654",1,"23264","Ishikawa_large_pos_11_0.jpg",NA,NA,NA,NA,NA,NA,NA,NA,NA,NA,NA,NA,NA,NA,NA,NA,"[]","middle",2,"sch",11,34,4,4,4,2,2,1,"85282","39","female","woman","","middle-eastern","","No","",""
"35","5dfda52097234ba7a779bea7","svTrial","survey",44,1493711,"0.0-2.0-42.0","65553732575bb29198a888d7","65565a39589c16e683d92654",1,"31995","Ishikawa_middle_pos_3_3.jpg",NA,NA,NA,NA,NA,NA,NA,NA,NA,NA,NA,NA,NA,NA,NA,NA,"[]","middle",2,"sch",3,35,3,3,2,2,2,1,"85282","39","female","woman","","middle-eastern","","No","",""
"36","5dfda52097234ba7a779bea7","svTrial","survey",45,1510007,"0.0-2.0-43.0","65553732575bb29198a888d7","65565a39589c16e683d92654",1,"16238","Niigata_middle_sch_8_0.jpg",NA,NA,NA,NA,NA,NA,NA,NA,NA,NA,NA,NA,NA,NA,NA,NA,"[]","middle",2,"pos",8,36,3,4,3,1,1,1,"85282","39","female","woman","","middle-eastern","","No","",""
"37","5dfda52097234ba7a779bea7","svTrial","survey",46,1531007,"0.0-2.0-44.0","65553732575bb29198a888d7","65565a39589c16e683d92654",1,"20937","Kanagawa_large_pos_10_1.jpg",NA,NA,NA,NA,NA,NA,NA,NA,NA,NA,NA,NA,NA,NA,NA,NA,"[]","small",1,"pos",10,37,2,2,4,2,2,1,"85282","39","female","woman","","middle-eastern","","No","",""
"38","5dfda52097234ba7a779bea7","svTrial","survey",47,1551943,"0.0-2.0-45.0","65553732575bb29198a888d7","65565a39589c16e683d92654",1,"20878","Tokyo_large_sch_10_0.jpg",NA,NA,NA,NA,NA,NA,NA,NA,NA,NA,NA,NA,NA,NA,NA,NA,"[]","middle",1,"pos",10,38,4,3,3,2,2,1,"85282","39","female","woman","","middle-eastern","","No","",""
"39","5dfda52097234ba7a779bea7","svTrial","survey",48,1576679,"0.0-2.0-46.0","65553732575bb29198a888d7","65565a39589c16e683d92654",1,"24681","Kanagawa_large_pos_12_0.jpg",NA,NA,NA,NA,NA,NA,NA,NA,NA,NA,NA,NA,NA,NA,NA,NA,"[]","middle",1,"sch",12,39,4,3,3,2,2,1,"85282","39","female","woman","","middle-eastern","","No","",""
"40","5dfda52097234ba7a779bea7","svTrial","survey",49,1600783,"0.0-2.0-47.0","65553732575bb29198a888d7","65565a39589c16e683d92654",1,"24050","Hokkaido_middle_pos_6_3.jpg",NA,NA,NA,NA,NA,NA,NA,NA,NA,NA,NA,NA,NA,NA,NA,NA,"[]","large",1,"sch",6,40,4,4,4,2,2,1,"85282","39","female","woman","","middle-eastern","","No","",""
"41","5dfda52097234ba7a779bea7","svTrial","survey",50,1627268,"0.0-2.0-48.0","65553732575bb29198a888d7","65565a39589c16e683d92654",1,"26409","Niigata_large_sch_11_1.jpg",NA,NA,NA,NA,NA,NA,NA,NA,NA,NA,NA,NA,NA,NA,NA,NA,"[]","middle",2,"pos",11,41,4,3,4,2,2,1,"85282","39","female","woman","","middle-eastern","","No","",""
"42","5dfda52097234ba7a779bea7","svTrial","survey",51,1643927,"0.0-2.0-49.0","65553732575bb29198a888d7","65565a39589c16e683d92654",1,"16602","Niigata_middle_sch_7_2.jpg",NA,NA,NA,NA,NA,NA,NA,NA,NA,NA,NA,NA,NA,NA,NA,NA,"[]","middle",2,"pos",7,42,1,1,2,1,1,1,"85282","39","female","woman","","middle-eastern","","No","",""
"43","5dfda52097234ba7a779bea7","svTrial","survey",52,1666039,"0.0-2.0-50.0","65553732575bb29198a888d7","65565a39589c16e683d92654",1,"22058","Ishikawa_middle_pos_2_2.jpg",NA,NA,NA,NA,NA,NA,NA,NA,NA,NA,NA,NA,NA,NA,NA,NA,"[]","middle",2,"sch",2,43,2,3,2,2,2,1,"85282","39","female","woman","","middle-eastern","","No","",""
"44","5dfda52097234ba7a779bea7","svTrial","survey",53,1832149,"0.0-2.0-51.0","65553732575bb29198a888d7","65565a39589c16e683d92654",1,"166050","Hokkaido_large_sch_12_1.jpg",NA,NA,NA,NA,NA,NA,NA,NA,NA,NA,NA,NA,NA,NA,NA,NA,"[]","small",1,"sch",12,44,2,4,3,2,2,1,"85282","39","female","woman","","middle-eastern","","No","",""
"45","5dfda52097234ba7a779bea7","svTrial","survey",54,1852325,"0.0-2.0-52.0","65553732575bb29198a888d7","65565a39589c16e683d92654",1,"20092","Toyama_middle_pos_8_3.jpg",NA,NA,NA,NA,NA,NA,NA,NA,NA,NA,NA,NA,NA,NA,NA,NA,"[]","middle",2,"pos",8,45,4,4,2,2,2,1,"85282","39","female","woman","","middle-eastern","","No","",""
"46","5dfda52097234ba7a779bea7","svTrial","survey",55,1866273,"0.0-2.0-53.0","65553732575bb29198a888d7","65565a39589c16e683d92654",1,"13852","Niigata_large_sch_10_2.jpg",NA,NA,NA,NA,NA,NA,NA,NA,NA,NA,NA,NA,NA,NA,NA,NA,"[]","large",2,"sch",10,46,2,2,4,2,2,1,"85282","39","female","woman","","middle-eastern","","No","",""
"47","5dfda52097234ba7a779bea7","svTrial","survey",56,1893793,"0.0-2.0-54.0","65553732575bb29198a888d7","65565a39589c16e683d92654",1,"27416","Niigata_large_sch_1_3.jpg",NA,NA,NA,NA,NA,NA,NA,NA,NA,NA,NA,NA,NA,NA,NA,NA,"[]","middle",2,"pos",1,47,2,2,2,1,1,1,"85282","39","female","woman","","middle-eastern","","No","",""
"48","5dfda52097234ba7a779bea7","svTrial","survey",57,1983369,"0.0-2.0-55.0","65553732575bb29198a888d7","65565a39589c16e683d92654",1,"89478","Okinawa_large_pos_12_1.jpg",NA,NA,NA,NA,NA,NA,NA,NA,NA,NA,NA,NA,NA,NA,NA,NA,"[]","large",1,"sch",12,48,4,5,4,2,2,1,"85282","39","female","woman","","middle-eastern","","No","",""
