"","subject_id","task","trial_type","trial_index","time_elapsed","internal_node_id","study_id","session_id","group","rt","stimulus","width","height","webaudio","browser","browser_version","mobile","os","fullscreen","vsync_rate","webcam","microphone","success","timeout","failed_images","failed_audio","failed_video","accuracy","size","culture","loct","number","document.id","ambiguous","objects","invisible","chaos","complex","passedChecks","zipcode","age","sex","gender","gender-self-describe","ethnicity","ethnicity-self-describe","outsideUS","outsideUS_years","surveyComments"
"1","5ee2e3ed6e98a7839bef6555","svTrial","survey",8,32457,"0.0-2.0-6.0","65553732575bb29198a888d7","65565c66023531d49623b6c9",6,"18955","Hokkaido_small_pos_2_3.jpg",NA,NA,NA,NA,NA,NA,NA,NA,NA,NA,NA,NA,NA,NA,NA,NA,"[]","middle",1,"sch",2,1,5,5,1,1,1,1,"11209","21","male","man","","caucasian","","No","6 months",""
"2","5ee2e3ed6e98a7839bef6555","svTrial","survey",9,38966,"0.0-2.0-7.0","65553732575bb29198a888d7","65565c66023531d49623b6c9",6,"6486","Akita_large_pos_5_0.jpg",NA,NA,NA,NA,NA,NA,NA,NA,NA,NA,NA,NA,NA,NA,NA,NA,"[]","large",2,"pos",5,2,3,3,3,3,3,1,"11209","21","male","man","","caucasian","","No","6 months",""
"3","5ee2e3ed6e98a7839bef6555","svTrial","survey",11,46657,"0.0-2.0-9.0","65553732575bb29198a888d7","65565c66023531d49623b6c9",6,"4618","Kanagawa_middle_pos_1_2.jpg",NA,NA,NA,NA,NA,NA,NA,NA,NA,NA,NA,NA,NA,NA,NA,NA,"[]","small",1,"pos",1,3,3,3,3,3,3,1,"11209","21","male","man","","caucasian","","No","6 months",""
"4","5ee2e3ed6e98a7839bef6555","svTrial","survey",12,58052,"0.0-2.0-10.0","65553732575bb29198a888d7","65565c66023531d49623b6c9",6,"11382","Toyama_middle_sch_8_0.jpg",NA,NA,NA,NA,NA,NA,NA,NA,NA,NA,NA,NA,NA,NA,NA,NA,"[]","middle",2,"pos",8,4,5,1,5,2,2,1,"11209","21","male","man","","caucasian","","No","6 months",""
"5","5ee2e3ed6e98a7839bef6555","svTrial","survey",13,65263,"0.0-2.0-11.0","65553732575bb29198a888d7","65565c66023531d49623b6c9",6,"7200","Ishikawa_small_sch_3_1.jpg",NA,NA,NA,NA,NA,NA,NA,NA,NA,NA,NA,NA,NA,NA,NA,NA,"[]","large",2,"sch",3,5,4,3,3,2,3,1,"11209","21","male","man","","caucasian","","No","6 months",""
"6","5ee2e3ed6e98a7839bef6555","svTrial","survey",14,70911,"0.0-2.0-12.0","65553732575bb29198a888d7","65565c66023531d49623b6c9",6,"5633","Okinawa_large_sch_5_2.jpg",NA,NA,NA,NA,NA,NA,NA,NA,NA,NA,NA,NA,NA,NA,NA,NA,"[]","small",1,"pos",5,6,3,3,3,3,3,1,"11209","21","male","man","","caucasian","","No","6 months",""
"7","5ee2e3ed6e98a7839bef6555","svTrial","survey",15,74674,"0.0-2.0-13.0","65553732575bb29198a888d7","65565c66023531d49623b6c9",6,"3751","Tokyo_middle_pos_6_0.jpg",NA,NA,NA,NA,NA,NA,NA,NA,NA,NA,NA,NA,NA,NA,NA,NA,"[]","large",1,"pos",6,7,3,3,3,3,3,1,"11209","21","male","man","","caucasian","","No","6 months",""
"8","5ee2e3ed6e98a7839bef6555","svTrial","survey",16,78986,"0.0-2.0-14.0","65553732575bb29198a888d7","65565c66023531d49623b6c9",6,"4301","Okinawa_large_pos_9_3.jpg",NA,NA,NA,NA,NA,NA,NA,NA,NA,NA,NA,NA,NA,NA,NA,NA,"[]","small",1,"sch",9,8,3,3,3,3,3,1,"11209","21","male","man","","caucasian","","No","6 months",""
"9","5ee2e3ed6e98a7839bef6555","svTrial","survey",17,83699,"0.0-2.0-15.0","65553732575bb29198a888d7","65565c66023531d49623b6c9",6,"4701","Ishikawa_middle_pos_1_3.jpg",NA,NA,NA,NA,NA,NA,NA,NA,NA,NA,NA,NA,NA,NA,NA,NA,"[]","small",2,"sch",1,9,3,3,3,3,3,1,"11209","21","male","man","","caucasian","","No","6 months",""
"10","5ee2e3ed6e98a7839bef6555","svTrial","survey",18,88274,"0.0-2.0-16.0","65553732575bb29198a888d7","65565c66023531d49623b6c9",6,"4563","Okinawa_middle_pos_1_0.jpg",NA,NA,NA,NA,NA,NA,NA,NA,NA,NA,NA,NA,NA,NA,NA,NA,"[]","middle",1,"pos",1,10,3,2,3,3,2,1,"11209","21","male","man","","caucasian","","No","6 months",""
"11","5ee2e3ed6e98a7839bef6555","svTrial","survey",19,92327,"0.0-2.0-17.0","65553732575bb29198a888d7","65565c66023531d49623b6c9",6,"4041","Ishikawa_small_pos_4_0.jpg",NA,NA,NA,NA,NA,NA,NA,NA,NA,NA,NA,NA,NA,NA,NA,NA,"[]","small",2,"sch",4,11,3,3,3,3,3,1,"11209","21","male","man","","caucasian","","No","6 months",""
"12","5ee2e3ed6e98a7839bef6555","svTrial","survey",20,96667,"0.0-2.0-18.0","65553732575bb29198a888d7","65565c66023531d49623b6c9",6,"4329","Niigata_large_pos_5_1.jpg",NA,NA,NA,NA,NA,NA,NA,NA,NA,NA,NA,NA,NA,NA,NA,NA,"[]","small",2,"sch",5,12,3,3,3,3,3,1,"11209","21","male","man","","caucasian","","No","6 months",""
"13","5ee2e3ed6e98a7839bef6555","svTrial","survey",21,102601,"0.0-2.0-19.0","65553732575bb29198a888d7","65565c66023531d49623b6c9",6,"5921","Ishikawa_large_sch_10_0.jpg",NA,NA,NA,NA,NA,NA,NA,NA,NA,NA,NA,NA,NA,NA,NA,NA,"[]","middle",2,"pos",10,13,3,3,3,3,3,1,"11209","21","male","man","","caucasian","","No","6 months",""
"14","5ee2e3ed6e98a7839bef6555","svTrial","survey",22,107516,"0.0-2.0-20.0","65553732575bb29198a888d7","65565c66023531d49623b6c9",6,"4903","Hokkaido_large_pos_9_2.jpg",NA,NA,NA,NA,NA,NA,NA,NA,NA,NA,NA,NA,NA,NA,NA,NA,"[]","small",1,"sch",9,14,2,2,2,2,NA,1,"11209","21","male","man","","caucasian","","No","6 months",""
"15","5ee2e3ed6e98a7839bef6555","svTrial","survey",23,114276,"0.0-2.0-21.0","65553732575bb29198a888d7","65565c66023531d49623b6c9",6,"6743","Okinawa_large_pos_2_2.jpg",NA,NA,NA,NA,NA,NA,NA,NA,NA,NA,NA,NA,NA,NA,NA,NA,"[]","small",1,"sch",2,15,3,3,3,3,3,1,"11209","21","male","man","","caucasian","","No","6 months",""
"16","5ee2e3ed6e98a7839bef6555","svTrial","survey",24,118524,"0.0-2.0-22.0","65553732575bb29198a888d7","65565c66023531d49623b6c9",6,"4237","Toyama_large_pos_1_1.jpg",NA,NA,NA,NA,NA,NA,NA,NA,NA,NA,NA,NA,NA,NA,NA,NA,"[]","large",2,"sch",1,16,3,3,3,3,3,1,"11209","21","male","man","","caucasian","","No","6 months",""
"17","5ee2e3ed6e98a7839bef6555","svTrial","survey",25,128629,"0.0-2.0-23.0","65553732575bb29198a888d7","65565c66023531d49623b6c9",6,"10093","Toyama_large_pos_6_0.jpg",NA,NA,NA,NA,NA,NA,NA,NA,NA,NA,NA,NA,NA,NA,NA,NA,"[]","large",2,"pos",6,17,3,3,3,3,3,1,"11209","21","male","man","","caucasian","","No","6 months",""
"18","5ee2e3ed6e98a7839bef6555","svTrial","survey",26,132604,"0.0-2.0-24.0","65553732575bb29198a888d7","65565c66023531d49623b6c9",6,"3964","Hokkaido_large_pos_10_2.jpg",NA,NA,NA,NA,NA,NA,NA,NA,NA,NA,NA,NA,NA,NA,NA,NA,"[]","small",1,"sch",10,18,3,3,3,3,3,1,"11209","21","male","man","","caucasian","","No","6 months",""
"19","5ee2e3ed6e98a7839bef6555","svTrial","survey",27,136797,"0.0-2.0-25.0","65553732575bb29198a888d7","65565c66023531d49623b6c9",6,"4182","Toyama_large_sch_10_1.jpg",NA,NA,NA,NA,NA,NA,NA,NA,NA,NA,NA,NA,NA,NA,NA,NA,"[]","large",2,"pos",10,19,3,3,3,3,3,1,"11209","21","male","man","","caucasian","","No","6 months",""
"20","5ee2e3ed6e98a7839bef6555","svTrial","survey",28,141242,"0.0-2.0-26.0","65553732575bb29198a888d7","65565c66023531d49623b6c9",6,"4436","Akita_middle_pos_5_3.jpg",NA,NA,NA,NA,NA,NA,NA,NA,NA,NA,NA,NA,NA,NA,NA,NA,"[]","middle",2,"sch",5,20,3,3,3,3,3,1,"11209","21","male","man","","caucasian","","No","6 months",""
"21","5ee2e3ed6e98a7839bef6555","svTrial","survey",29,145772,"0.0-2.0-27.0","65553732575bb29198a888d7","65565c66023531d49623b6c9",6,"4520","Niigata_large_pos_12_1.jpg",NA,NA,NA,NA,NA,NA,NA,NA,NA,NA,NA,NA,NA,NA,NA,NA,"[]","large",2,"pos",12,21,3,3,3,3,3,1,"11209","21","male","man","","caucasian","","No","6 months",""
"22","5ee2e3ed6e98a7839bef6555","svTrial","survey",30,149655,"0.0-2.0-28.0","65553732575bb29198a888d7","65565c66023531d49623b6c9",6,"3873","Okinawa_small_sch_1_2.jpg",NA,NA,NA,NA,NA,NA,NA,NA,NA,NA,NA,NA,NA,NA,NA,NA,"[]","middle",1,"pos",1,22,3,3,3,3,3,1,"11209","21","male","man","","caucasian","","No","6 months",""
"23","5ee2e3ed6e98a7839bef6555","svTrial","survey",31,155786,"0.0-2.0-29.0","65553732575bb29198a888d7","65565c66023531d49623b6c9",6,"6122","Okinawa_middle_sch_4_2.jpg",NA,NA,NA,NA,NA,NA,NA,NA,NA,NA,NA,NA,NA,NA,NA,NA,"[]","small",1,"pos",4,23,3,3,3,3,3,1,"11209","21","male","man","","caucasian","","No","6 months",""
"24","5ee2e3ed6e98a7839bef6555","svTrial","survey",32,160180,"0.0-2.0-30.0","65553732575bb29198a888d7","65565c66023531d49623b6c9",6,"4382","Toyama_large_pos_11_0.jpg",NA,NA,NA,NA,NA,NA,NA,NA,NA,NA,NA,NA,NA,NA,NA,NA,"[]","small",2,"sch",11,24,3,2,2,2,2,1,"11209","21","male","man","","caucasian","","No","6 months",""
"25","5ee2e3ed6e98a7839bef6555","svTrial","survey",34,170719,"0.0-2.0-32.0","65553732575bb29198a888d7","65565c66023531d49623b6c9",6,"5299","Okinawa_large_sch_12_2.jpg",NA,NA,NA,NA,NA,NA,NA,NA,NA,NA,NA,NA,NA,NA,NA,NA,"[]","large",1,"pos",12,25,3,3,3,3,3,1,"11209","21","male","man","","caucasian","","No","6 months",""
"26","5ee2e3ed6e98a7839bef6555","svTrial","survey",35,178330,"0.0-2.0-33.0","65553732575bb29198a888d7","65565c66023531d49623b6c9",6,"7598","Hokkaido_large_sch_5_2.jpg",NA,NA,NA,NA,NA,NA,NA,NA,NA,NA,NA,NA,NA,NA,NA,NA,"[]","middle",1,"pos",5,26,2,2,2,2,2,1,"11209","21","male","man","","caucasian","","No","6 months",""
"27","5ee2e3ed6e98a7839bef6555","svTrial","survey",36,183670,"0.0-2.0-34.0","65553732575bb29198a888d7","65565c66023531d49623b6c9",6,"5329","Akita_middle_pos_1_3.jpg",NA,NA,NA,NA,NA,NA,NA,NA,NA,NA,NA,NA,NA,NA,NA,NA,"[]","middle",2,"pos",1,27,5,3,3,3,4,1,"11209","21","male","man","","caucasian","","No","6 months",""
"28","5ee2e3ed6e98a7839bef6555","svTrial","survey",37,188712,"0.0-2.0-35.0","65553732575bb29198a888d7","65565c66023531d49623b6c9",6,"5032","Niigata_large_pos_11_1.jpg",NA,NA,NA,NA,NA,NA,NA,NA,NA,NA,NA,NA,NA,NA,NA,NA,"[]","large",2,"sch",11,28,4,4,3,2,3,1,"11209","21","male","man","","caucasian","","No","6 months",""
"29","5ee2e3ed6e98a7839bef6555","svTrial","survey",38,192340,"0.0-2.0-36.0","65553732575bb29198a888d7","65565c66023531d49623b6c9",6,"3617","Okinawa_middle_sch_1_3.jpg",NA,NA,NA,NA,NA,NA,NA,NA,NA,NA,NA,NA,NA,NA,NA,NA,"[]","small",1,"sch",1,29,4,3,4,2,3,1,"11209","21","male","man","","caucasian","","No","6 months",""
"30","5ee2e3ed6e98a7839bef6555","svTrial","survey",39,196401,"0.0-2.0-37.0","65553732575bb29198a888d7","65565c66023531d49623b6c9",6,"4051","Okinawa_small_sch_4_3.jpg",NA,NA,NA,NA,NA,NA,NA,NA,NA,NA,NA,NA,NA,NA,NA,NA,"[]","large",1,"sch",4,30,2,3,2,3,3,1,"11209","21","male","man","","caucasian","","No","6 months",""
"31","5ee2e3ed6e98a7839bef6555","svTrial","survey",40,200851,"0.0-2.0-38.0","65553732575bb29198a888d7","65565c66023531d49623b6c9",6,"4439","Okinawa_middle_pos_3_2.jpg",NA,NA,NA,NA,NA,NA,NA,NA,NA,NA,NA,NA,NA,NA,NA,NA,"[]","middle",1,"sch",3,31,3,3,3,3,3,1,"11209","21","male","man","","caucasian","","No","6 months",""
"32","5ee2e3ed6e98a7839bef6555","svTrial","survey",41,208277,"0.0-2.0-39.0","65553732575bb29198a888d7","65565c66023531d49623b6c9",6,"7406","Tokyo_large_sch_2_0.jpg",NA,NA,NA,NA,NA,NA,NA,NA,NA,NA,NA,NA,NA,NA,NA,NA,"[]","large",1,"pos",2,32,3,2,3,NA,4,1,"11209","21","male","man","","caucasian","","No","6 months",""
"33","5ee2e3ed6e98a7839bef6555","svTrial","survey",42,211734,"0.0-2.0-40.0","65553732575bb29198a888d7","65565c66023531d49623b6c9",6,"3447","Niigata_middle_sch_4_0.jpg",NA,NA,NA,NA,NA,NA,NA,NA,NA,NA,NA,NA,NA,NA,NA,NA,"[]","middle",2,"sch",4,33,3,3,3,3,4,1,"11209","21","male","man","","caucasian","","No","6 months",""
"34","5ee2e3ed6e98a7839bef6555","svTrial","survey",43,222527,"0.0-2.0-41.0","65553732575bb29198a888d7","65565c66023531d49623b6c9",6,"10783","Kanagawa_large_sch_12_3.jpg",NA,NA,NA,NA,NA,NA,NA,NA,NA,NA,NA,NA,NA,NA,NA,NA,"[]","large",1,"pos",12,34,1,1,1,1,1,1,"11209","21","male","man","","caucasian","","No","6 months",""
"35","5ee2e3ed6e98a7839bef6555","svTrial","survey",44,227423,"0.0-2.0-42.0","65553732575bb29198a888d7","65565c66023531d49623b6c9",6,"4886","Hokkaido_large_sch_8_1.jpg",NA,NA,NA,NA,NA,NA,NA,NA,NA,NA,NA,NA,NA,NA,NA,NA,"[]","large",1,"pos",8,35,1,1,1,1,1,1,"11209","21","male","man","","caucasian","","No","6 months",""
"36","5ee2e3ed6e98a7839bef6555","svTrial","survey",45,232702,"0.0-2.0-43.0","65553732575bb29198a888d7","65565c66023531d49623b6c9",6,"5261","Tokyo_middle_sch_2_2.jpg",NA,NA,NA,NA,NA,NA,NA,NA,NA,NA,NA,NA,NA,NA,NA,NA,"[]","middle",1,"pos",2,36,1,1,1,1,1,1,"11209","21","male","man","","caucasian","","No","6 months",""
"37","5ee2e3ed6e98a7839bef6555","svTrial","survey",46,236981,"0.0-2.0-44.0","65553732575bb29198a888d7","65565c66023531d49623b6c9",6,"4267","Okinawa_large_pos_3_1.jpg",NA,NA,NA,NA,NA,NA,NA,NA,NA,NA,NA,NA,NA,NA,NA,NA,"[]","large",1,"sch",3,37,1,1,1,1,1,1,"11209","21","male","man","","caucasian","","No","6 months",""
"38","5ee2e3ed6e98a7839bef6555","svTrial","survey",47,240249,"0.0-2.0-45.0","65553732575bb29198a888d7","65565c66023531d49623b6c9",6,"3257","Akita_large_sch_12_2.jpg",NA,NA,NA,NA,NA,NA,NA,NA,NA,NA,NA,NA,NA,NA,NA,NA,"[]","small",2,"pos",12,38,3,3,3,3,3,1,"11209","21","male","man","","caucasian","","No","6 months",""
"39","5ee2e3ed6e98a7839bef6555","svTrial","survey",48,244482,"0.0-2.0-46.0","65553732575bb29198a888d7","65565c66023531d49623b6c9",6,"4221","Niigata_large_sch_7_1.jpg",NA,NA,NA,NA,NA,NA,NA,NA,NA,NA,NA,NA,NA,NA,NA,NA,"[]","small",2,"pos",7,39,3,3,3,3,3,1,"11209","21","male","man","","caucasian","","No","6 months",""
"40","5ee2e3ed6e98a7839bef6555","svTrial","survey",49,248572,"0.0-2.0-47.0","65553732575bb29198a888d7","65565c66023531d49623b6c9",6,"4081","Ishikawa_large_pos_2_3.jpg",NA,NA,NA,NA,NA,NA,NA,NA,NA,NA,NA,NA,NA,NA,NA,NA,"[]","large",2,"pos",2,40,3,3,3,3,3,1,"11209","21","male","man","","caucasian","","No","6 months",""
"41","5ee2e3ed6e98a7839bef6555","svTrial","survey",50,253254,"0.0-2.0-48.0","65553732575bb29198a888d7","65565c66023531d49623b6c9",6,"4671","Akita_large_pos_7_2.jpg",NA,NA,NA,NA,NA,NA,NA,NA,NA,NA,NA,NA,NA,NA,NA,NA,"[]","large",2,"sch",7,41,3,3,3,3,3,1,"11209","21","male","man","","caucasian","","No","6 months",""
"42","5ee2e3ed6e98a7839bef6555","svTrial","survey",51,257325,"0.0-2.0-49.0","65553732575bb29198a888d7","65565c66023531d49623b6c9",6,"4059","Akita_middle_sch_8_2.jpg",NA,NA,NA,NA,NA,NA,NA,NA,NA,NA,NA,NA,NA,NA,NA,NA,"[]","large",2,"sch",8,42,3,3,3,3,3,1,"11209","21","male","man","","caucasian","","No","6 months",""
"43","5ee2e3ed6e98a7839bef6555","svTrial","survey",52,261712,"0.0-2.0-50.0","65553732575bb29198a888d7","65565c66023531d49623b6c9",6,"4379","Akita_large_pos_10_0.jpg",NA,NA,NA,NA,NA,NA,NA,NA,NA,NA,NA,NA,NA,NA,NA,NA,"[]","middle",2,"pos",10,43,3,3,3,2,3,1,"11209","21","male","man","","caucasian","","No","6 months",""
"44","5ee2e3ed6e98a7839bef6555","svTrial","survey",53,265273,"0.0-2.0-51.0","65553732575bb29198a888d7","65565c66023531d49623b6c9",6,"3550","Okinawa_large_pos_5_0.jpg",NA,NA,NA,NA,NA,NA,NA,NA,NA,NA,NA,NA,NA,NA,NA,NA,"[]","middle",1,"sch",5,44,3,3,3,2,3,1,"11209","21","male","man","","caucasian","","No","6 months",""
"45","5ee2e3ed6e98a7839bef6555","svTrial","survey",54,269485,"0.0-2.0-52.0","65553732575bb29198a888d7","65565c66023531d49623b6c9",6,"4202","Hokkaido_middle_pos_3_3.jpg",NA,NA,NA,NA,NA,NA,NA,NA,NA,NA,NA,NA,NA,NA,NA,NA,"[]","middle",1,"pos",3,45,3,3,3,3,3,1,"11209","21","male","man","","caucasian","","No","6 months",""
"46","5ee2e3ed6e98a7839bef6555","svTrial","survey",55,273185,"0.0-2.0-53.0","65553732575bb29198a888d7","65565c66023531d49623b6c9",6,"3691","Niigata_small_pos_2_3.jpg",NA,NA,NA,NA,NA,NA,NA,NA,NA,NA,NA,NA,NA,NA,NA,NA,"[]","large",2,"sch",2,46,3,3,3,3,3,1,"11209","21","male","man","","caucasian","","No","6 months",""
"47","5ee2e3ed6e98a7839bef6555","svTrial","survey",56,277110,"0.0-2.0-54.0","65553732575bb29198a888d7","65565c66023531d49623b6c9",6,"3915","Ishikawa_large_sch_3_3.jpg",NA,NA,NA,NA,NA,NA,NA,NA,NA,NA,NA,NA,NA,NA,NA,NA,"[]","middle",2,"pos",3,47,3,3,3,3,3,1,"11209","21","male","man","","caucasian","","No","6 months",""
"48","5ee2e3ed6e98a7839bef6555","svTrial","survey",57,280967,"0.0-2.0-55.0","65553732575bb29198a888d7","65565c66023531d49623b6c9",6,"3848","Hokkaido_middle_sch_4_1.jpg",NA,NA,NA,NA,NA,NA,NA,NA,NA,NA,NA,NA,NA,NA,NA,NA,"[]","middle",1,"sch",4,48,3,3,3,3,3,1,"11209","21","male","man","","caucasian","","No","6 months",""
