"","subject_id","task","trial_type","trial_index","time_elapsed","internal_node_id","study_id","session_id","group","rt","stimulus","width","height","webaudio","browser","browser_version","mobile","os","fullscreen","vsync_rate","webcam","microphone","success","timeout","failed_images","failed_audio","failed_video","accuracy","size","culture","loct","number","document.id","ambiguous","objects","invisible","chaos","complex","passedChecks","zipcode","age","sex","gender","gender-self-describe","ethnicity","ethnicity-self-describe","outsideUS","outsideUS_years","surveyComments"
"1","5f5f039252a9217cad40cc18","svTrial","survey",8,185455,"0.0-2.0-6.0","65553732575bb29198a888d7","655655dbf01602fce0708d65",1,"29054","Toyama_middle_sch_5_3.jpg",NA,NA,NA,NA,NA,NA,NA,NA,NA,NA,NA,NA,NA,NA,NA,NA,"[]","middle",2,"sch",5,1,5,4,5,5,5,1,"55376","32","female","woman","","other","Mixed (White, Black, Middle Eastern)","No","",""
"2","5f5f039252a9217cad40cc18","svTrial","survey",9,217023,"0.0-2.0-7.0","65553732575bb29198a888d7","655655dbf01602fce0708d65",1,"31559","Niigata_large_sch_9_3.jpg",NA,NA,NA,NA,NA,NA,NA,NA,NA,NA,NA,NA,NA,NA,NA,NA,"[]","middle",2,"sch",9,2,5,4,4,4,4,1,"55376","32","female","woman","","other","Mixed (White, Black, Middle Eastern)","No","",""
"3","5f5f039252a9217cad40cc18","svTrial","survey",10,251820,"0.0-2.0-8.0","65553732575bb29198a888d7","655655dbf01602fce0708d65",1,"34790","Niigata_middle_sch_7_2.jpg",NA,NA,NA,NA,NA,NA,NA,NA,NA,NA,NA,NA,NA,NA,NA,NA,"[]","middle",2,"pos",7,3,3,3,2,3,3,1,"55376","32","female","woman","","other","Mixed (White, Black, Middle Eastern)","No","",""
"4","5f5f039252a9217cad40cc18","svTrial","survey",11,265316,"0.0-2.0-9.0","65553732575bb29198a888d7","655655dbf01602fce0708d65",1,"13489","Niigata_middle_sch_2_2.jpg",NA,NA,NA,NA,NA,NA,NA,NA,NA,NA,NA,NA,NA,NA,NA,NA,"[]","large",2,"pos",2,4,1,1,1,1,1,1,"55376","32","female","woman","","other","Mixed (White, Black, Middle Eastern)","No","",""
"5","5f5f039252a9217cad40cc18","svTrial","survey",12,294697,"0.0-2.0-10.0","65553732575bb29198a888d7","655655dbf01602fce0708d65",1,"29375","Tokyo_large_pos_1_2.jpg",NA,NA,NA,NA,NA,NA,NA,NA,NA,NA,NA,NA,NA,NA,NA,NA,"[]","large",1,"pos",1,5,2,3,3,2,3,1,"55376","32","female","woman","","other","Mixed (White, Black, Middle Eastern)","No","",""
"6","5f5f039252a9217cad40cc18","svTrial","survey",13,323079,"0.0-2.0-11.0","65553732575bb29198a888d7","655655dbf01602fce0708d65",1,"28376","Tokyo_small_pos_3_2.jpg",NA,NA,NA,NA,NA,NA,NA,NA,NA,NA,NA,NA,NA,NA,NA,NA,"[]","middle",1,"sch",3,6,2,3,3,3,2,1,"55376","32","female","woman","","other","Mixed (White, Black, Middle Eastern)","No","",""
"7","5f5f039252a9217cad40cc18","svTrial","survey",14,340979,"0.0-2.0-12.0","65553732575bb29198a888d7","655655dbf01602fce0708d65",1,"17894","Toyama_large_pos_7_1.jpg",NA,NA,NA,NA,NA,NA,NA,NA,NA,NA,NA,NA,NA,NA,NA,NA,"[]","large",2,"sch",7,7,1,1,1,1,1,1,"55376","32","female","woman","","other","Mixed (White, Black, Middle Eastern)","No","",""
"8","5f5f039252a9217cad40cc18","svTrial","survey",15,362722,"0.0-2.0-13.0","65553732575bb29198a888d7","655655dbf01602fce0708d65",1,"21737","Hokkaido_large_pos_11_0.jpg",NA,NA,NA,NA,NA,NA,NA,NA,NA,NA,NA,NA,NA,NA,NA,NA,"[]","small",1,"pos",11,8,2,2,1,2,2,1,"55376","32","female","woman","","other","Mixed (White, Black, Middle Eastern)","No","",""
"9","5f5f039252a9217cad40cc18","svTrial","survey",16,388150,"0.0-2.0-14.0","65553732575bb29198a888d7","655655dbf01602fce0708d65",1,"25421","Tokyo_middle_sch_5_2.jpg",NA,NA,NA,NA,NA,NA,NA,NA,NA,NA,NA,NA,NA,NA,NA,NA,"[]","small",1,"sch",5,9,4,4,4,4,3,1,"55376","32","female","woman","","other","Mixed (White, Black, Middle Eastern)","No","",""
"10","5f5f039252a9217cad40cc18","svTrial","survey",17,430812,"0.0-2.0-15.0","65553732575bb29198a888d7","655655dbf01602fce0708d65",1,"42657","Akita_large_sch_2_2.jpg",NA,NA,NA,NA,NA,NA,NA,NA,NA,NA,NA,NA,NA,NA,NA,NA,"[]","middle",2,"sch",2,10,4,2,4,3,3,1,"55376","32","female","woman","","other","Mixed (White, Black, Middle Eastern)","No","",""
"11","5f5f039252a9217cad40cc18","svTrial","survey",18,452775,"0.0-2.0-16.0","65553732575bb29198a888d7","655655dbf01602fce0708d65",1,"21957","Ishikawa_middle_pos_2_1.jpg",NA,NA,NA,NA,NA,NA,NA,NA,NA,NA,NA,NA,NA,NA,NA,NA,"[]","middle",2,"sch",2,11,2,3,2,2,2,1,"55376","32","female","woman","","other","Mixed (White, Black, Middle Eastern)","No","",""
"12","5f5f039252a9217cad40cc18","svTrial","survey",19,476215,"0.0-2.0-17.0","65553732575bb29198a888d7","655655dbf01602fce0708d65",1,"23434","Hokkaido_large_sch_12_1.jpg",NA,NA,NA,NA,NA,NA,NA,NA,NA,NA,NA,NA,NA,NA,NA,NA,"[]","small",1,"sch",12,12,1,3,2,2,2,1,"55376","32","female","woman","","other","Mixed (White, Black, Middle Eastern)","No","",""
"13","5f5f039252a9217cad40cc18","svTrial","survey",20,523644,"0.0-2.0-18.0","65553732575bb29198a888d7","655655dbf01602fce0708d65",1,"47423","Niigata_large_sch_11_0.jpg",NA,NA,NA,NA,NA,NA,NA,NA,NA,NA,NA,NA,NA,NA,NA,NA,"[]","middle",2,"pos",11,13,3,3,3,3,3,1,"55376","32","female","woman","","other","Mixed (White, Black, Middle Eastern)","No","",""
"14","5f5f039252a9217cad40cc18","svTrial","survey",21,546836,"0.0-2.0-19.0","65553732575bb29198a888d7","655655dbf01602fce0708d65",1,"23186","Niigata_large_sch_2_1.jpg",NA,NA,NA,NA,NA,NA,NA,NA,NA,NA,NA,NA,NA,NA,NA,NA,"[]","middle",2,"sch",2,14,2,2,2,2,2,1,"55376","32","female","woman","","other","Mixed (White, Black, Middle Eastern)","No","",""
"15","5f5f039252a9217cad40cc18","svTrial","survey",22,561186,"0.0-2.0-20.0","65553732575bb29198a888d7","655655dbf01602fce0708d65",1,"14344","Kanagawa_large_pos_12_1.jpg",NA,NA,NA,NA,NA,NA,NA,NA,NA,NA,NA,NA,NA,NA,NA,NA,"[]","middle",1,"sch",12,15,4,4,3,4,4,1,"55376","32","female","woman","","other","Mixed (White, Black, Middle Eastern)","No","",""
"16","5f5f039252a9217cad40cc18","svTrial","survey",23,577607,"0.0-2.0-21.0","65553732575bb29198a888d7","655655dbf01602fce0708d65",1,"16416","Hokkaido_middle_pos_6_0.jpg",NA,NA,NA,NA,NA,NA,NA,NA,NA,NA,NA,NA,NA,NA,NA,NA,"[]","large",1,"sch",6,16,1,2,1,1,1,1,"55376","32","female","woman","","other","Mixed (White, Black, Middle Eastern)","No","",""
"17","5f5f039252a9217cad40cc18","svTrial","survey",24,590289,"0.0-2.0-22.0","65553732575bb29198a888d7","655655dbf01602fce0708d65",1,"12676","Akita_small_sch_4_0.jpg",NA,NA,NA,NA,NA,NA,NA,NA,NA,NA,NA,NA,NA,NA,NA,NA,"[]","large",2,"sch",4,17,1,1,1,1,1,1,"55376","32","female","woman","","other","Mixed (White, Black, Middle Eastern)","No","",""
"18","5f5f039252a9217cad40cc18","svTrial","survey",25,603726,"0.0-2.0-23.0","65553732575bb29198a888d7","655655dbf01602fce0708d65",1,"13431","Niigata_large_sch_10_0.jpg",NA,NA,NA,NA,NA,NA,NA,NA,NA,NA,NA,NA,NA,NA,NA,NA,"[]","large",2,"sch",10,18,1,2,1,1,1,1,"55376","32","female","woman","","other","Mixed (White, Black, Middle Eastern)","No","",""
"19","5f5f039252a9217cad40cc18","svTrial","survey",27,635467,"0.0-2.0-25.0","65553732575bb29198a888d7","655655dbf01602fce0708d65",1,"24288","Okinawa_large_pos_10_1.jpg",NA,NA,NA,NA,NA,NA,NA,NA,NA,NA,NA,NA,NA,NA,NA,NA,"[]","middle",1,"sch",10,19,4,5,3,4,4,1,"55376","32","female","woman","","other","Mixed (White, Black, Middle Eastern)","No","",""
"20","5f5f039252a9217cad40cc18","svTrial","survey",28,653346,"0.0-2.0-26.0","65553732575bb29198a888d7","655655dbf01602fce0708d65",1,"17873","Ishikawa_middle_pos_3_1.jpg",NA,NA,NA,NA,NA,NA,NA,NA,NA,NA,NA,NA,NA,NA,NA,NA,"[]","middle",2,"sch",3,20,1,1,1,1,1,1,"55376","32","female","woman","","other","Mixed (White, Black, Middle Eastern)","No","",""
"21","5f5f039252a9217cad40cc18","svTrial","survey",29,667822,"0.0-2.0-27.0","65553732575bb29198a888d7","655655dbf01602fce0708d65",1,"14469","Niigata_small_sch_4_1.jpg",NA,NA,NA,NA,NA,NA,NA,NA,NA,NA,NA,NA,NA,NA,NA,NA,"[]","large",2,"sch",4,21,1,1,1,1,1,1,"55376","32","female","woman","","other","Mixed (White, Black, Middle Eastern)","No","",""
"22","5f5f039252a9217cad40cc18","svTrial","survey",30,678340,"0.0-2.0-28.0","65553732575bb29198a888d7","655655dbf01602fce0708d65",1,"10514","Toyama_large_sch_11_1.jpg",NA,NA,NA,NA,NA,NA,NA,NA,NA,NA,NA,NA,NA,NA,NA,NA,"[]","middle",2,"sch",11,22,1,1,1,1,1,1,"55376","32","female","woman","","other","Mixed (White, Black, Middle Eastern)","No","",""
"23","5f5f039252a9217cad40cc18","svTrial","survey",31,697374,"0.0-2.0-29.0","65553732575bb29198a888d7","655655dbf01602fce0708d65",1,"19028","Kanagawa_small_sch_2_1.jpg",NA,NA,NA,NA,NA,NA,NA,NA,NA,NA,NA,NA,NA,NA,NA,NA,"[]","large",1,"sch",2,23,2,3,2,2,2,1,"55376","32","female","woman","","other","Mixed (White, Black, Middle Eastern)","No","",""
"24","5f5f039252a9217cad40cc18","svTrial","survey",32,715052,"0.0-2.0-30.0","65553732575bb29198a888d7","655655dbf01602fce0708d65",1,"17672","Kanagawa_middle_pos_7_1.jpg",NA,NA,NA,NA,NA,NA,NA,NA,NA,NA,NA,NA,NA,NA,NA,NA,"[]","middle",1,"sch",7,24,3,3,2,2,3,1,"55376","32","female","woman","","other","Mixed (White, Black, Middle Eastern)","No","",""
"25","5f5f039252a9217cad40cc18","svTrial","survey",34,762453,"0.0-2.0-32.0","65553732575bb29198a888d7","655655dbf01602fce0708d65",1,"31633","Toyama_middle_pos_8_1.jpg",NA,NA,NA,NA,NA,NA,NA,NA,NA,NA,NA,NA,NA,NA,NA,NA,"[]","middle",2,"pos",8,25,2,1,1,1,1,1,"55376","32","female","woman","","other","Mixed (White, Black, Middle Eastern)","No","",""
"26","5f5f039252a9217cad40cc18","svTrial","survey",35,776449,"0.0-2.0-33.0","65553732575bb29198a888d7","655655dbf01602fce0708d65",1,"13990","Akita_large_pos_2_0.jpg",NA,NA,NA,NA,NA,NA,NA,NA,NA,NA,NA,NA,NA,NA,NA,NA,"[]","middle",2,"pos",2,26,2,2,1,1,2,1,"55376","32","female","woman","","other","Mixed (White, Black, Middle Eastern)","No","",""
"27","5f5f039252a9217cad40cc18","svTrial","survey",36,802605,"0.0-2.0-34.0","65553732575bb29198a888d7","655655dbf01602fce0708d65",1,"26149","Tokyo_large_pos_4_1.jpg",NA,NA,NA,NA,NA,NA,NA,NA,NA,NA,NA,NA,NA,NA,NA,NA,"[]","large",1,"pos",4,27,3,4,2,3,3,1,"55376","32","female","woman","","other","Mixed (White, Black, Middle Eastern)","No","",""
"28","5f5f039252a9217cad40cc18","svTrial","survey",37,812762,"0.0-2.0-35.0","65553732575bb29198a888d7","655655dbf01602fce0708d65",1,"10151","Kanagawa_large_pos_1_3.jpg",NA,NA,NA,NA,NA,NA,NA,NA,NA,NA,NA,NA,NA,NA,NA,NA,"[]","large",1,"sch",1,28,1,1,1,1,1,1,"55376","32","female","woman","","other","Mixed (White, Black, Middle Eastern)","No","",""
"29","5f5f039252a9217cad40cc18","svTrial","survey",38,820829,"0.0-2.0-36.0","65553732575bb29198a888d7","655655dbf01602fce0708d65",1,"8062","Toyama_large_pos_10_2.jpg",NA,NA,NA,NA,NA,NA,NA,NA,NA,NA,NA,NA,NA,NA,NA,NA,"[]","small",2,"sch",10,29,1,1,1,1,1,1,"55376","32","female","woman","","other","Mixed (White, Black, Middle Eastern)","No","",""
"30","5f5f039252a9217cad40cc18","svTrial","survey",39,825728,"0.0-2.0-37.0","65553732575bb29198a888d7","655655dbf01602fce0708d65",1,"4893","Hokkaido_large_sch_1_1.jpg",NA,NA,NA,NA,NA,NA,NA,NA,NA,NA,NA,NA,NA,NA,NA,NA,"[]","large",1,"sch",1,30,1,1,1,1,1,1,"55376","32","female","woman","","other","Mixed (White, Black, Middle Eastern)","No","",""
"31","5f5f039252a9217cad40cc18","svTrial","survey",40,833107,"0.0-2.0-38.0","65553732575bb29198a888d7","655655dbf01602fce0708d65",1,"7374","Akita_middle_sch_4_3.jpg",NA,NA,NA,NA,NA,NA,NA,NA,NA,NA,NA,NA,NA,NA,NA,NA,"[]","small",2,"sch",4,31,1,1,1,1,1,1,"55376","32","female","woman","","other","Mixed (White, Black, Middle Eastern)","No","",""
"32","5f5f039252a9217cad40cc18","svTrial","survey",41,847521,"0.0-2.0-39.0","65553732575bb29198a888d7","655655dbf01602fce0708d65",1,"14408","Kanagawa_large_pos_10_0.jpg",NA,NA,NA,NA,NA,NA,NA,NA,NA,NA,NA,NA,NA,NA,NA,NA,"[]","small",1,"pos",10,32,1,1,2,1,1,1,"55376","32","female","woman","","other","Mixed (White, Black, Middle Eastern)","No","",""
"33","5f5f039252a9217cad40cc18","svTrial","survey",42,861124,"0.0-2.0-40.0","65553732575bb29198a888d7","655655dbf01602fce0708d65",1,"13597","Okinawa_large_sch_6_2.jpg",NA,NA,NA,NA,NA,NA,NA,NA,NA,NA,NA,NA,NA,NA,NA,NA,"[]","large",1,"sch",6,33,1,1,1,1,1,1,"55376","32","female","woman","","other","Mixed (White, Black, Middle Eastern)","No","",""
"34","5f5f039252a9217cad40cc18","svTrial","survey",43,873953,"0.0-2.0-41.0","65553732575bb29198a888d7","655655dbf01602fce0708d65",1,"12823","Ishikawa_large_pos_11_0.jpg",NA,NA,NA,NA,NA,NA,NA,NA,NA,NA,NA,NA,NA,NA,NA,NA,"[]","middle",2,"sch",11,34,2,3,2,2,2,1,"55376","32","female","woman","","other","Mixed (White, Black, Middle Eastern)","No","",""
"35","5f5f039252a9217cad40cc18","svTrial","survey",44,891366,"0.0-2.0-42.0","65553732575bb29198a888d7","655655dbf01602fce0708d65",1,"17407","Toyama_small_pos_3_3.jpg",NA,NA,NA,NA,NA,NA,NA,NA,NA,NA,NA,NA,NA,NA,NA,NA,"[]","large",2,"sch",3,35,1,2,2,1,1,1,"55376","32","female","woman","","other","Mixed (White, Black, Middle Eastern)","No","",""
"36","5f5f039252a9217cad40cc18","svTrial","survey",45,896853,"0.0-2.0-43.0","65553732575bb29198a888d7","655655dbf01602fce0708d65",1,"5482","Tokyo_large_sch_10_1.jpg",NA,NA,NA,NA,NA,NA,NA,NA,NA,NA,NA,NA,NA,NA,NA,NA,"[]","middle",1,"pos",10,36,1,1,1,1,1,1,"55376","32","female","woman","","other","Mixed (White, Black, Middle Eastern)","No","",""
"37","5f5f039252a9217cad40cc18","svTrial","survey",46,919566,"0.0-2.0-44.0","65553732575bb29198a888d7","655655dbf01602fce0708d65",1,"22705","Tokyo_large_pos_12_0.jpg",NA,NA,NA,NA,NA,NA,NA,NA,NA,NA,NA,NA,NA,NA,NA,NA,"[]","middle",1,"pos",12,37,2,3,2,2,2,1,"55376","32","female","woman","","other","Mixed (White, Black, Middle Eastern)","No","",""
"38","5f5f039252a9217cad40cc18","svTrial","survey",47,926350,"0.0-2.0-45.0","65553732575bb29198a888d7","655655dbf01602fce0708d65",1,"6778","Niigata_middle_pos_3_2.jpg",NA,NA,NA,NA,NA,NA,NA,NA,NA,NA,NA,NA,NA,NA,NA,NA,"[]","large",2,"pos",3,38,1,1,1,1,1,1,"55376","32","female","woman","","other","Mixed (White, Black, Middle Eastern)","No","",""
"39","5f5f039252a9217cad40cc18","svTrial","survey",48,964296,"0.0-2.0-46.0","65553732575bb29198a888d7","655655dbf01602fce0708d65",1,"37940","Okinawa_large_sch_11_3.jpg",NA,NA,NA,NA,NA,NA,NA,NA,NA,NA,NA,NA,NA,NA,NA,NA,"[]","middle",1,"pos",11,39,2,2,3,2,2,1,"55376","32","female","woman","","other","Mixed (White, Black, Middle Eastern)","No","",""
"40","5f5f039252a9217cad40cc18","svTrial","survey",49,979917,"0.0-2.0-47.0","65553732575bb29198a888d7","655655dbf01602fce0708d65",1,"15615","Niigata_small_sch_1_0.jpg",NA,NA,NA,NA,NA,NA,NA,NA,NA,NA,NA,NA,NA,NA,NA,NA,"[]","middle",2,"sch",1,40,2,3,3,2,3,1,"55376","32","female","woman","","other","Mixed (White, Black, Middle Eastern)","No","",""
"41","5f5f039252a9217cad40cc18","svTrial","survey",50,990811,"0.0-2.0-48.0","65553732575bb29198a888d7","655655dbf01602fce0708d65",1,"10888","Hokkaido_middle_pos_2_2.jpg",NA,NA,NA,NA,NA,NA,NA,NA,NA,NA,NA,NA,NA,NA,NA,NA,"[]","small",1,"pos",2,41,4,4,3,3,3,1,"55376","32","female","woman","","other","Mixed (White, Black, Middle Eastern)","No","",""
"42","5f5f039252a9217cad40cc18","svTrial","survey",51,1002285,"0.0-2.0-49.0","65553732575bb29198a888d7","655655dbf01602fce0708d65",1,"11469","Okinawa_large_pos_12_3.jpg",NA,NA,NA,NA,NA,NA,NA,NA,NA,NA,NA,NA,NA,NA,NA,NA,"[]","large",1,"sch",12,42,2,1,1,1,1,1,"55376","32","female","woman","","other","Mixed (White, Black, Middle Eastern)","No","",""
"43","5f5f039252a9217cad40cc18","svTrial","survey",52,1016669,"0.0-2.0-50.0","65553732575bb29198a888d7","655655dbf01602fce0708d65",1,"14377","Kanagawa_middle_sch_6_3.jpg",NA,NA,NA,NA,NA,NA,NA,NA,NA,NA,NA,NA,NA,NA,NA,NA,"[]","small",1,"sch",6,43,3,2,3,2,2,1,"55376","32","female","woman","","other","Mixed (White, Black, Middle Eastern)","No","",""
"44","5f5f039252a9217cad40cc18","svTrial","survey",53,1031335,"0.0-2.0-51.0","65553732575bb29198a888d7","655655dbf01602fce0708d65",1,"14659","Hokkaido_large_pos_3_2.jpg",NA,NA,NA,NA,NA,NA,NA,NA,NA,NA,NA,NA,NA,NA,NA,NA,"[]","middle",1,"pos",3,44,2,2,2,2,2,1,"55376","32","female","woman","","other","Mixed (White, Black, Middle Eastern)","No","",""
"45","5f5f039252a9217cad40cc18","svTrial","survey",54,1039454,"0.0-2.0-52.0","65553732575bb29198a888d7","655655dbf01602fce0708d65",1,"8113","Tokyo_large_sch_9_1.jpg",NA,NA,NA,NA,NA,NA,NA,NA,NA,NA,NA,NA,NA,NA,NA,NA,"[]","middle",1,"sch",9,45,1,1,1,1,1,1,"55376","32","female","woman","","other","Mixed (White, Black, Middle Eastern)","No","",""
"46","5f5f039252a9217cad40cc18","svTrial","survey",55,1046054,"0.0-2.0-53.0","65553732575bb29198a888d7","655655dbf01602fce0708d65",1,"6594","Tokyo_large_sch_11_3.jpg",NA,NA,NA,NA,NA,NA,NA,NA,NA,NA,NA,NA,NA,NA,NA,NA,"[]","small",1,"sch",11,46,1,1,1,1,1,1,"55376","32","female","woman","","other","Mixed (White, Black, Middle Eastern)","No","",""
"47","5f5f039252a9217cad40cc18","svTrial","survey",56,1056555,"0.0-2.0-54.0","65553732575bb29198a888d7","655655dbf01602fce0708d65",1,"10496","Niigata_middle_sch_8_3.jpg",NA,NA,NA,NA,NA,NA,NA,NA,NA,NA,NA,NA,NA,NA,NA,NA,"[]","middle",2,"pos",8,47,1,2,2,1,1,1,"55376","32","female","woman","","other","Mixed (White, Black, Middle Eastern)","No","",""
"48","5f5f039252a9217cad40cc18","svTrial","survey",57,1063846,"0.0-2.0-55.0","65553732575bb29198a888d7","655655dbf01602fce0708d65",1,"7285","Niigata_large_sch_1_3.jpg",NA,NA,NA,NA,NA,NA,NA,NA,NA,NA,NA,NA,NA,NA,NA,NA,"[]","middle",2,"pos",1,48,1,1,2,1,1,1,"55376","32","female","woman","","other","Mixed (White, Black, Middle Eastern)","No","",""
