"","subject_id","task","trial_type","trial_index","time_elapsed","internal_node_id","study_id","session_id","group","rt","stimulus","width","height","webaudio","browser","browser_version","mobile","os","fullscreen","vsync_rate","webcam","microphone","success","timeout","failed_images","failed_audio","failed_video","accuracy","size","culture","loct","number","document.id","ambiguous","objects","invisible","chaos","complex","passedChecks","zipcode","age","sex","gender","gender-self-describe","ethnicity","ethnicity-self-describe","outsideUS","outsideUS_years","surveyComments"
"1","5f89029c682ca91133f2281e","svTrial","survey",8,99101,"0.0-2.0-6.0","65553732575bb29198a888d7","655659911b29b380c114d4d6",2,"36203","Niigata_large_sch_4_1.jpg",NA,NA,NA,NA,NA,NA,NA,NA,NA,NA,NA,NA,NA,NA,NA,NA,"[]","small",2,"sch",4,1,2,NA,2,1,3,1,"19144","29","female","woman","","african","","No","",""
"2","5f89029c682ca91133f2281e","svTrial","survey",9,131313,"0.0-2.0-7.0","65553732575bb29198a888d7","655659911b29b380c114d4d6",2,"32180","Okinawa_large_sch_9_3.jpg",NA,NA,NA,NA,NA,NA,NA,NA,NA,NA,NA,NA,NA,NA,NA,NA,"[]","small",1,"sch",9,2,5,3,5,4,4,1,"19144","29","female","woman","","african","","No","",""
"3","5f89029c682ca91133f2281e","svTrial","survey",10,154142,"0.0-2.0-8.0","65553732575bb29198a888d7","655659911b29b380c114d4d6",2,"22787","Kanagawa_large_sch_3_2.jpg",NA,NA,NA,NA,NA,NA,NA,NA,NA,NA,NA,NA,NA,NA,NA,NA,"[]","small",1,"pos",3,3,5,3,4,3,3,1,"19144","29","female","woman","","african","","No","",""
"4","5f89029c682ca91133f2281e","svTrial","survey",11,174731,"0.0-2.0-9.0","65553732575bb29198a888d7","655659911b29b380c114d4d6",2,"20562","Hokkaido_large_sch_6_3.jpg",NA,NA,NA,NA,NA,NA,NA,NA,NA,NA,NA,NA,NA,NA,NA,NA,"[]","small",1,"pos",6,4,4,3,3,2,2,1,"19144","29","female","woman","","african","","No","",""
"5","5f89029c682ca91133f2281e","svTrial","survey",12,200786,"0.0-2.0-10.0","65553732575bb29198a888d7","655659911b29b380c114d4d6",2,"26028","Hokkaido_large_pos_12_3.jpg",NA,NA,NA,NA,NA,NA,NA,NA,NA,NA,NA,NA,NA,NA,NA,NA,"[]","middle",1,"sch",12,5,4,2,4,3,3,1,"19144","29","female","woman","","african","","No","",""
"6","5f89029c682ca91133f2281e","svTrial","survey",13,290212,"0.0-2.0-11.0","65553732575bb29198a888d7","655659911b29b380c114d4d6",2,"89405","Niigata_middle_pos_8_0.jpg",NA,NA,NA,NA,NA,NA,NA,NA,NA,NA,NA,NA,NA,NA,NA,NA,"[]","middle",2,"pos",8,6,1,1,1,1,1,1,"19144","29","female","woman","","african","","No","",""
"7","5f89029c682ca91133f2281e","svTrial","survey",14,305423,"0.0-2.0-12.0","65553732575bb29198a888d7","655659911b29b380c114d4d6",2,"15171","Okinawa_large_sch_1_0.jpg",NA,NA,NA,NA,NA,NA,NA,NA,NA,NA,NA,NA,NA,NA,NA,NA,"[]","middle",1,"pos",1,7,1,1,2,1,2,1,"19144","29","female","woman","","african","","No","",""
"8","5f89029c682ca91133f2281e","svTrial","survey",15,333250,"0.0-2.0-13.0","65553732575bb29198a888d7","655659911b29b380c114d4d6",2,"27803","Toyama_middle_pos_7_2.jpg",NA,NA,NA,NA,NA,NA,NA,NA,NA,NA,NA,NA,NA,NA,NA,NA,"[]","large",2,"sch",7,8,1,NA,1,1,1,1,"19144","29","female","woman","","african","","No","",""
"9","5f89029c682ca91133f2281e","svTrial","survey",16,352889,"0.0-2.0-14.0","65553732575bb29198a888d7","655659911b29b380c114d4d6",2,"19599","Kanagawa_small_pos_2_3.jpg",NA,NA,NA,NA,NA,NA,NA,NA,NA,NA,NA,NA,NA,NA,NA,NA,"[]","small",1,"sch",2,9,3,4,3,4,3,1,"19144","29","female","woman","","african","","No","",""
"10","5f89029c682ca91133f2281e","svTrial","survey",17,365062,"0.0-2.0-15.0","65553732575bb29198a888d7","655659911b29b380c114d4d6",2,"12146","Okinawa_large_pos_4_0.jpg",NA,NA,NA,NA,NA,NA,NA,NA,NA,NA,NA,NA,NA,NA,NA,NA,"[]","large",1,"sch",4,10,1,1,3,1,1,1,"19144","29","female","woman","","african","","No","",""
"11","5f89029c682ca91133f2281e","svTrial","survey",18,444309,"0.0-2.0-16.0","65553732575bb29198a888d7","655659911b29b380c114d4d6",2,"79223","Toyama_large_sch_12_2.jpg",NA,NA,NA,NA,NA,NA,NA,NA,NA,NA,NA,NA,NA,NA,NA,NA,"[]","small",2,"pos",12,11,5,4,4,4,4,1,"19144","29","female","woman","","african","","No","",""
"12","5f89029c682ca91133f2281e","svTrial","survey",19,455903,"0.0-2.0-17.0","65553732575bb29198a888d7","655659911b29b380c114d4d6",2,"11569","Kanagawa_large_sch_7_0.jpg",NA,NA,NA,NA,NA,NA,NA,NA,NA,NA,NA,NA,NA,NA,NA,NA,"[]","middle",1,"pos",7,12,2,1,2,1,1,1,"19144","29","female","woman","","african","","No","",""
"13","5f89029c682ca91133f2281e","svTrial","survey",20,472751,"0.0-2.0-18.0","65553732575bb29198a888d7","655659911b29b380c114d4d6",2,"16828","Akita_middle_sch_2_0.jpg",NA,NA,NA,NA,NA,NA,NA,NA,NA,NA,NA,NA,NA,NA,NA,NA,"[]","middle",2,"sch",2,13,3,1,4,2,1,1,"19144","29","female","woman","","african","","No","",""
"14","5f89029c682ca91133f2281e","svTrial","survey",21,488510,"0.0-2.0-19.0","65553732575bb29198a888d7","655659911b29b380c114d4d6",2,"15735","Hokkaido_small_sch_4_1.jpg",NA,NA,NA,NA,NA,NA,NA,NA,NA,NA,NA,NA,NA,NA,NA,NA,"[]","small",1,"pos",4,14,3,2,3,2,1,1,"19144","29","female","woman","","african","","No","",""
"15","5f89029c682ca91133f2281e","svTrial","survey",22,501985,"0.0-2.0-20.0","65553732575bb29198a888d7","655659911b29b380c114d4d6",2,"13455","Kanagawa_large_sch_6_3.jpg",NA,NA,NA,NA,NA,NA,NA,NA,NA,NA,NA,NA,NA,NA,NA,NA,"[]","middle",1,"pos",6,15,3,2,3,2,1,1,"19144","29","female","woman","","african","","No","",""
"16","5f89029c682ca91133f2281e","svTrial","survey",23,517051,"0.0-2.0-21.0","65553732575bb29198a888d7","655659911b29b380c114d4d6",2,"15048","Okinawa_small_pos_2_3.jpg",NA,NA,NA,NA,NA,NA,NA,NA,NA,NA,NA,NA,NA,NA,NA,NA,"[]","large",1,"pos",2,16,1,1,1,1,1,1,"19144","29","female","woman","","african","","No","",""
"17","5f89029c682ca91133f2281e","svTrial","survey",24,527763,"0.0-2.0-22.0","65553732575bb29198a888d7","655659911b29b380c114d4d6",2,"10693","Tokyo_large_pos_5_3.jpg",NA,NA,NA,NA,NA,NA,NA,NA,NA,NA,NA,NA,NA,NA,NA,NA,"[]","middle",1,"pos",5,17,1,1,1,1,1,1,"19144","29","female","woman","","african","","No","",""
"18","5f89029c682ca91133f2281e","svTrial","survey",25,537925,"0.0-2.0-23.0","65553732575bb29198a888d7","655659911b29b380c114d4d6",2,"10144","Toyama_large_sch_5_1.jpg",NA,NA,NA,NA,NA,NA,NA,NA,NA,NA,NA,NA,NA,NA,NA,NA,"[]","large",2,"sch",5,18,1,1,1,1,1,1,"19144","29","female","woman","","african","","No","",""
"19","5f89029c682ca91133f2281e","svTrial","survey",26,547992,"0.0-2.0-24.0","65553732575bb29198a888d7","655659911b29b380c114d4d6",2,"10050","Akita_middle_sch_7_0.jpg",NA,NA,NA,NA,NA,NA,NA,NA,NA,NA,NA,NA,NA,NA,NA,NA,"[]","large",2,"sch",7,19,2,1,2,1,1,1,"19144","29","female","woman","","african","","No","",""
"20","5f89029c682ca91133f2281e","svTrial","survey",27,558320,"0.0-2.0-25.0","65553732575bb29198a888d7","655659911b29b380c114d4d6",2,"10295","Ishikawa_large_sch_1_0.jpg",NA,NA,NA,NA,NA,NA,NA,NA,NA,NA,NA,NA,NA,NA,NA,NA,"[]","middle",2,"sch",1,20,3,1,3,2,1,1,"19144","29","female","woman","","african","","No","",""
"21","5f89029c682ca91133f2281e","svTrial","survey",28,572531,"0.0-2.0-26.0","65553732575bb29198a888d7","655659911b29b380c114d4d6",2,"14193","Tokyo_small_sch_3_0.jpg",NA,NA,NA,NA,NA,NA,NA,NA,NA,NA,NA,NA,NA,NA,NA,NA,"[]","small",1,"sch",3,21,3,1,3,2,1,1,"19144","29","female","woman","","african","","No","",""
"22","5f89029c682ca91133f2281e","svTrial","survey",29,583163,"0.0-2.0-27.0","65553732575bb29198a888d7","655659911b29b380c114d4d6",2,"10616","Toyama_large_pos_3_1.jpg",NA,NA,NA,NA,NA,NA,NA,NA,NA,NA,NA,NA,NA,NA,NA,NA,"[]","middle",2,"pos",3,22,2,1,2,1,1,1,"19144","29","female","woman","","african","","No","",""
"23","5f89029c682ca91133f2281e","svTrial","survey",30,595991,"0.0-2.0-28.0","65553732575bb29198a888d7","655659911b29b380c114d4d6",2,"12806","Toyama_small_pos_4_1.jpg",NA,NA,NA,NA,NA,NA,NA,NA,NA,NA,NA,NA,NA,NA,NA,NA,"[]","small",2,"sch",4,23,1,1,1,1,1,1,"19144","29","female","woman","","african","","No","",""
"24","5f89029c682ca91133f2281e","svTrial","survey",31,603854,"0.0-2.0-29.0","65553732575bb29198a888d7","655659911b29b380c114d4d6",2,"7843","Toyama_small_sch_2_1.jpg",NA,NA,NA,NA,NA,NA,NA,NA,NA,NA,NA,NA,NA,NA,NA,NA,"[]","large",2,"pos",2,24,1,1,1,1,1,1,"19144","29","female","woman","","african","","No","",""
"25","5f89029c682ca91133f2281e","svTrial","survey",33,633630,"0.0-2.0-31.0","65553732575bb29198a888d7","655659911b29b380c114d4d6",2,"13974","Okinawa_large_sch_3_3.jpg",NA,NA,NA,NA,NA,NA,NA,NA,NA,NA,NA,NA,NA,NA,NA,NA,"[]","large",1,"pos",3,25,4,3,4,3,3,1,"19144","29","female","woman","","african","","No","",""
"26","5f89029c682ca91133f2281e","svTrial","survey",34,644643,"0.0-2.0-32.0","65553732575bb29198a888d7","655659911b29b380c114d4d6",2,"10996","Niigata_large_pos_6_2.jpg",NA,NA,NA,NA,NA,NA,NA,NA,NA,NA,NA,NA,NA,NA,NA,NA,"[]","large",2,"sch",6,26,1,1,1,1,2,1,"19144","29","female","woman","","african","","No","",""
"27","5f89029c682ca91133f2281e","svTrial","survey",36,681233,"0.0-2.0-34.0","65553732575bb29198a888d7","655659911b29b380c114d4d6",2,"26878","Kanagawa_large_sch_4_1.jpg",NA,NA,NA,NA,NA,NA,NA,NA,NA,NA,NA,NA,NA,NA,NA,NA,"[]","middle",1,"sch",4,27,4,2,4,2,2,1,"19144","29","female","woman","","african","","No","",""
"28","5f89029c682ca91133f2281e","svTrial","survey",37,691363,"0.0-2.0-35.0","65553732575bb29198a888d7","655659911b29b380c114d4d6",2,"10107","Akita_large_sch_3_2.jpg",NA,NA,NA,NA,NA,NA,NA,NA,NA,NA,NA,NA,NA,NA,NA,NA,"[]","small",2,"sch",3,28,4,2,3,2,2,1,"19144","29","female","woman","","african","","No","",""
"29","5f89029c682ca91133f2281e","svTrial","survey",38,700175,"0.0-2.0-36.0","65553732575bb29198a888d7","655659911b29b380c114d4d6",2,"8793","Tokyo_large_pos_6_1.jpg",NA,NA,NA,NA,NA,NA,NA,NA,NA,NA,NA,NA,NA,NA,NA,NA,"[]","middle",1,"pos",6,29,1,1,1,1,1,1,"19144","29","female","woman","","african","","No","",""
"30","5f89029c682ca91133f2281e","svTrial","survey",39,714751,"0.0-2.0-37.0","65553732575bb29198a888d7","655659911b29b380c114d4d6",2,"14558","Okinawa_middle_sch_2_3.jpg",NA,NA,NA,NA,NA,NA,NA,NA,NA,NA,NA,NA,NA,NA,NA,NA,"[]","small",1,"sch",2,30,2,1,1,1,1,1,"19144","29","female","woman","","african","","No","",""
"31","5f89029c682ca91133f2281e","svTrial","survey",40,725116,"0.0-2.0-38.0","65553732575bb29198a888d7","655659911b29b380c114d4d6",2,"10349","Kanagawa_large_pos_5_1.jpg",NA,NA,NA,NA,NA,NA,NA,NA,NA,NA,NA,NA,NA,NA,NA,NA,"[]","small",1,"sch",5,31,2,1,2,1,1,1,"19144","29","female","woman","","african","","No","",""
"32","5f89029c682ca91133f2281e","svTrial","survey",41,742162,"0.0-2.0-39.0","65553732575bb29198a888d7","655659911b29b380c114d4d6",2,"17029","Ishikawa_large_sch_5_1.jpg",NA,NA,NA,NA,NA,NA,NA,NA,NA,NA,NA,NA,NA,NA,NA,NA,"[]","large",2,"sch",5,32,3,1,2,1,2,1,"19144","29","female","woman","","african","","No","",""
"33","5f89029c682ca91133f2281e","svTrial","survey",42,764970,"0.0-2.0-40.0","65553732575bb29198a888d7","655659911b29b380c114d4d6",2,"22786","Niigata_large_sch_8_0.jpg",NA,NA,NA,NA,NA,NA,NA,NA,NA,NA,NA,NA,NA,NA,NA,NA,"[]","middle",2,"sch",8,33,2,1,2,1,1,1,"19144","29","female","woman","","african","","No","",""
"34","5f89029c682ca91133f2281e","svTrial","survey",43,781333,"0.0-2.0-41.0","65553732575bb29198a888d7","655659911b29b380c114d4d6",2,"16345","Niigata_middle_sch_5_1.jpg",NA,NA,NA,NA,NA,NA,NA,NA,NA,NA,NA,NA,NA,NA,NA,NA,"[]","small",2,"pos",5,34,3,3,4,3,3,1,"19144","29","female","woman","","african","","No","",""
"35","5f89029c682ca91133f2281e","svTrial","survey",44,801844,"0.0-2.0-42.0","65553732575bb29198a888d7","655659911b29b380c114d4d6",2,"20496","Akita_large_pos_8_1.jpg",NA,NA,NA,NA,NA,NA,NA,NA,NA,NA,NA,NA,NA,NA,NA,NA,"[]","middle",2,"pos",8,35,4,2,4,2,2,1,"19144","29","female","woman","","african","","No","",""
"36","5f89029c682ca91133f2281e","svTrial","survey",45,811938,"0.0-2.0-43.0","65553732575bb29198a888d7","655659911b29b380c114d4d6",2,"10074","Hokkaido_middle_sch_3_2.jpg",NA,NA,NA,NA,NA,NA,NA,NA,NA,NA,NA,NA,NA,NA,NA,NA,"[]","middle",1,"sch",3,36,1,1,1,1,1,1,"19144","29","female","woman","","african","","No","",""
"37","5f89029c682ca91133f2281e","svTrial","survey",46,822388,"0.0-2.0-44.0","65553732575bb29198a888d7","655659911b29b380c114d4d6",2,"10431","Toyama_middle_pos_4_2.jpg",NA,NA,NA,NA,NA,NA,NA,NA,NA,NA,NA,NA,NA,NA,NA,NA,"[]","large",2,"sch",4,37,1,1,2,1,1,1,"19144","29","female","woman","","african","","No","",""
"38","5f89029c682ca91133f2281e","svTrial","survey",47,836585,"0.0-2.0-45.0","65553732575bb29198a888d7","655659911b29b380c114d4d6",2,"14176","Akita_large_pos_6_2.jpg",NA,NA,NA,NA,NA,NA,NA,NA,NA,NA,NA,NA,NA,NA,NA,NA,"[]","large",2,"sch",6,38,2,2,2,2,2,1,"19144","29","female","woman","","african","","No","",""
"39","5f89029c682ca91133f2281e","svTrial","survey",48,851424,"0.0-2.0-46.0","65553732575bb29198a888d7","655659911b29b380c114d4d6",2,"14821","Toyama_middle_pos_2_1.jpg",NA,NA,NA,NA,NA,NA,NA,NA,NA,NA,NA,NA,NA,NA,NA,NA,"[]","middle",2,"pos",2,39,3,2,3,2,1,1,"19144","29","female","woman","","african","","No","",""
"40","5f89029c682ca91133f2281e","svTrial","survey",49,865355,"0.0-2.0-47.0","65553732575bb29198a888d7","655659911b29b380c114d4d6",2,"13917","Niigata_large_pos_8_1.jpg",NA,NA,NA,NA,NA,NA,NA,NA,NA,NA,NA,NA,NA,NA,NA,NA,"[]","middle",2,"pos",8,40,4,1,4,1,1,1,"19144","29","female","woman","","african","","No","",""
"41","5f89029c682ca91133f2281e","svTrial","survey",50,876671,"0.0-2.0-48.0","65553732575bb29198a888d7","655659911b29b380c114d4d6",2,"11290","Hokkaido_middle_sch_5_2.jpg",NA,NA,NA,NA,NA,NA,NA,NA,NA,NA,NA,NA,NA,NA,NA,NA,"[]","small",1,"pos",5,41,1,1,2,1,1,1,"19144","29","female","woman","","african","","No","",""
"42","5f89029c682ca91133f2281e","svTrial","survey",51,890646,"0.0-2.0-49.0","65553732575bb29198a888d7","655659911b29b380c114d4d6",2,"13956","Tokyo_middle_sch_8_2.jpg",NA,NA,NA,NA,NA,NA,NA,NA,NA,NA,NA,NA,NA,NA,NA,NA,"[]","small",1,"sch",8,42,2,1,2,1,1,1,"19144","29","female","woman","","african","","No","",""
"43","5f89029c682ca91133f2281e","svTrial","survey",52,902791,"0.0-2.0-50.0","65553732575bb29198a888d7","655659911b29b380c114d4d6",2,"12129","Toyama_middle_pos_5_3.jpg",NA,NA,NA,NA,NA,NA,NA,NA,NA,NA,NA,NA,NA,NA,NA,NA,"[]","large",2,"sch",5,43,1,1,1,1,1,1,"19144","29","female","woman","","african","","No","",""
"44","5f89029c682ca91133f2281e","svTrial","survey",53,919222,"0.0-2.0-51.0","65553732575bb29198a888d7","655659911b29b380c114d4d6",2,"16414","Okinawa_large_sch_8_2.jpg",NA,NA,NA,NA,NA,NA,NA,NA,NA,NA,NA,NA,NA,NA,NA,NA,"[]","middle",1,"sch",8,44,3,1,3,1,1,1,"19144","29","female","woman","","african","","No","",""
"45","5f89029c682ca91133f2281e","svTrial","survey",54,933083,"0.0-2.0-52.0","65553732575bb29198a888d7","655659911b29b380c114d4d6",2,"13839","Toyama_large_sch_1_3.jpg",NA,NA,NA,NA,NA,NA,NA,NA,NA,NA,NA,NA,NA,NA,NA,NA,"[]","middle",2,"sch",1,45,3,1,3,1,1,1,"19144","29","female","woman","","african","","No","",""
"46","5f89029c682ca91133f2281e","svTrial","survey",55,949825,"0.0-2.0-53.0","65553732575bb29198a888d7","655659911b29b380c114d4d6",2,"16724","Toyama_small_sch_4_3.jpg",NA,NA,NA,NA,NA,NA,NA,NA,NA,NA,NA,NA,NA,NA,NA,NA,"[]","middle",2,"sch",4,46,3,2,3,1,1,1,"19144","29","female","woman","","african","","No","",""
"47","5f89029c682ca91133f2281e","svTrial","survey",56,961423,"0.0-2.0-54.0","65553732575bb29198a888d7","655659911b29b380c114d4d6",2,"11582","Kanagawa_small_pos_3_0.jpg",NA,NA,NA,NA,NA,NA,NA,NA,NA,NA,NA,NA,NA,NA,NA,NA,"[]","large",1,"sch",3,47,2,1,2,1,1,1,"19144","29","female","woman","","african","","No","",""
"48","5f89029c682ca91133f2281e","svTrial","survey",57,979637,"0.0-2.0-55.0","65553732575bb29198a888d7","655659911b29b380c114d4d6",2,"18193","Kanagawa_middle_sch_3_3.jpg",NA,NA,NA,NA,NA,NA,NA,NA,NA,NA,NA,NA,NA,NA,NA,NA,"[]","large",1,"sch",3,48,5,5,4,5,4,1,"19144","29","female","woman","","african","","No","",""
