"","subject_id","task","trial_type","trial_index","time_elapsed","internal_node_id","study_id","session_id","group","rt","stimulus","width","height","webaudio","browser","browser_version","mobile","os","fullscreen","vsync_rate","webcam","microphone","success","timeout","failed_images","failed_audio","failed_video","accuracy","size","culture","loct","number","document.id","ambiguous","objects","invisible","chaos","complex","passedChecks","zipcode","age","sex","gender","gender-self-describe","ethnicity","ethnicity-self-describe","outsideUS","outsideUS_years","surveyComments"
"1","5f9a25f467c68d13eaa9cc5c","svTrial","survey",8,426869,"0.0-2.0-6.0","65553732575bb29198a888d7","655659c914e274cff2f5b9a1",6,"131274","Toyama_large_sch_10_1.jpg",NA,NA,NA,NA,NA,NA,NA,NA,NA,NA,NA,NA,NA,NA,NA,NA,"[]","large",2,"pos",10,1,4,2,2,1,1,1,"91945","32","male","man","","latino","","No","","It was fine. "
"2","5f9a25f467c68d13eaa9cc5c","svTrial","survey",9,513586,"0.0-2.0-7.0","65553732575bb29198a888d7","655659c914e274cff2f5b9a1",6,"86690","Okinawa_small_sch_4_1.jpg",NA,NA,NA,NA,NA,NA,NA,NA,NA,NA,NA,NA,NA,NA,NA,NA,"[]","large",1,"sch",4,2,4,2,4,3,3,1,"91945","32","male","man","","latino","","No","","It was fine. "
"3","5f9a25f467c68d13eaa9cc5c","svTrial","survey",10,542726,"0.0-2.0-8.0","65553732575bb29198a888d7","655659c914e274cff2f5b9a1",6,"29116","Hokkaido_middle_sch_4_3.jpg",NA,NA,NA,NA,NA,NA,NA,NA,NA,NA,NA,NA,NA,NA,NA,NA,"[]","middle",1,"sch",4,3,1,1,1,1,1,1,"91945","32","male","man","","latino","","No","","It was fine. "
"4","5f9a25f467c68d13eaa9cc5c","svTrial","survey",11,555718,"0.0-2.0-9.0","65553732575bb29198a888d7","655659c914e274cff2f5b9a1",6,"12974","Toyama_large_pos_6_2.jpg",NA,NA,NA,NA,NA,NA,NA,NA,NA,NA,NA,NA,NA,NA,NA,NA,"[]","large",2,"pos",6,4,1,1,1,1,1,1,"91945","32","male","man","","latino","","No","","It was fine. "
"5","5f9a25f467c68d13eaa9cc5c","svTrial","survey",12,570370,"0.0-2.0-10.0","65553732575bb29198a888d7","655659c914e274cff2f5b9a1",6,"14633","Tokyo_large_sch_2_2.jpg",NA,NA,NA,NA,NA,NA,NA,NA,NA,NA,NA,NA,NA,NA,NA,NA,"[]","large",1,"pos",2,5,2,2,2,2,1,1,"91945","32","male","man","","latino","","No","","It was fine. "
"6","5f9a25f467c68d13eaa9cc5c","svTrial","survey",13,582406,"0.0-2.0-11.0","65553732575bb29198a888d7","655659c914e274cff2f5b9a1",6,"12020","Hokkaido_large_sch_5_1.jpg",NA,NA,NA,NA,NA,NA,NA,NA,NA,NA,NA,NA,NA,NA,NA,NA,"[]","middle",1,"pos",5,6,5,5,5,5,5,1,"91945","32","male","man","","latino","","No","","It was fine. "
"7","5f9a25f467c68d13eaa9cc5c","svTrial","survey",14,606680,"0.0-2.0-12.0","65553732575bb29198a888d7","655659c914e274cff2f5b9a1",6,"24258","Hokkaido_small_pos_2_3.jpg",NA,NA,NA,NA,NA,NA,NA,NA,NA,NA,NA,NA,NA,NA,NA,NA,"[]","middle",1,"sch",2,7,1,3,4,1,3,1,"91945","32","male","man","","latino","","No","","It was fine. "
"8","5f9a25f467c68d13eaa9cc5c","svTrial","survey",15,645412,"0.0-2.0-13.0","65553732575bb29198a888d7","655659c914e274cff2f5b9a1",6,"38713","Toyama_large_pos_11_2.jpg",NA,NA,NA,NA,NA,NA,NA,NA,NA,NA,NA,NA,NA,NA,NA,NA,"[]","small",2,"sch",11,8,1,2,1,2,2,1,"91945","32","male","man","","latino","","No","","It was fine. "
"9","5f9a25f467c68d13eaa9cc5c","svTrial","survey",16,666194,"0.0-2.0-14.0","65553732575bb29198a888d7","655659c914e274cff2f5b9a1",6,"20765","Niigata_small_pos_2_2.jpg",NA,NA,NA,NA,NA,NA,NA,NA,NA,NA,NA,NA,NA,NA,NA,NA,"[]","large",2,"sch",2,9,3,3,2,2,2,1,"91945","32","male","man","","latino","","No","","It was fine. "
"10","5f9a25f467c68d13eaa9cc5c","svTrial","survey",17,679589,"0.0-2.0-15.0","65553732575bb29198a888d7","655659c914e274cff2f5b9a1",6,"13377","Tokyo_middle_pos_6_1.jpg",NA,NA,NA,NA,NA,NA,NA,NA,NA,NA,NA,NA,NA,NA,NA,NA,"[]","large",1,"pos",6,10,4,5,4,4,5,1,"91945","32","male","man","","latino","","No","","It was fine. "
"11","5f9a25f467c68d13eaa9cc5c","svTrial","survey",18,716181,"0.0-2.0-16.0","65553732575bb29198a888d7","655659c914e274cff2f5b9a1",6,"36576","Hokkaido_middle_pos_3_2.jpg",NA,NA,NA,NA,NA,NA,NA,NA,NA,NA,NA,NA,NA,NA,NA,NA,"[]","middle",1,"pos",3,11,2,2,2,1,2,1,"91945","32","male","man","","latino","","No","","It was fine. "
"12","5f9a25f467c68d13eaa9cc5c","svTrial","survey",19,732350,"0.0-2.0-17.0","65553732575bb29198a888d7","655659c914e274cff2f5b9a1",6,"16152","Niigata_large_pos_11_3.jpg",NA,NA,NA,NA,NA,NA,NA,NA,NA,NA,NA,NA,NA,NA,NA,NA,"[]","large",2,"sch",11,12,1,2,3,3,2,1,"91945","32","male","man","","latino","","No","","It was fine. "
"13","5f9a25f467c68d13eaa9cc5c","svTrial","survey",20,785701,"0.0-2.0-18.0","65553732575bb29198a888d7","655659c914e274cff2f5b9a1",6,"53332","Kanagawa_large_sch_12_1.jpg",NA,NA,NA,NA,NA,NA,NA,NA,NA,NA,NA,NA,NA,NA,NA,NA,"[]","large",1,"pos",12,13,4,1,4,2,1,1,"91945","32","male","man","","latino","","No","","It was fine. "
"14","5f9a25f467c68d13eaa9cc5c","svTrial","survey",21,804879,"0.0-2.0-19.0","65553732575bb29198a888d7","655659c914e274cff2f5b9a1",6,"19162","Ishikawa_small_sch_3_0.jpg",NA,NA,NA,NA,NA,NA,NA,NA,NA,NA,NA,NA,NA,NA,NA,NA,"[]","large",2,"sch",3,14,1,1,1,1,1,1,"91945","32","male","man","","latino","","No","","It was fine. "
"15","5f9a25f467c68d13eaa9cc5c","svTrial","survey",22,813161,"0.0-2.0-20.0","65553732575bb29198a888d7","655659c914e274cff2f5b9a1",6,"8266","Akita_large_pos_5_2.jpg",NA,NA,NA,NA,NA,NA,NA,NA,NA,NA,NA,NA,NA,NA,NA,NA,"[]","large",2,"pos",5,15,1,2,2,1,2,1,"91945","32","male","man","","latino","","No","","It was fine. "
"16","5f9a25f467c68d13eaa9cc5c","svTrial","survey",23,1076242,"0.0-2.0-21.0","65553732575bb29198a888d7","655659c914e274cff2f5b9a1",6,"263064","Niigata_large_sch_7_1.jpg",NA,NA,NA,NA,NA,NA,NA,NA,NA,NA,NA,NA,NA,NA,NA,NA,"[]","small",2,"pos",7,16,3,3,2,1,3,1,"91945","32","male","man","","latino","","No","","It was fine. "
"17","5f9a25f467c68d13eaa9cc5c","svTrial","survey",24,1108185,"0.0-2.0-22.0","65553732575bb29198a888d7","655659c914e274cff2f5b9a1",6,"31927","Niigata_middle_sch_4_2.jpg",NA,NA,NA,NA,NA,NA,NA,NA,NA,NA,NA,NA,NA,NA,NA,NA,"[]","middle",2,"sch",4,17,2,2,1,1,1,1,"91945","32","male","man","","latino","","No","","It was fine. "
"18","5f9a25f467c68d13eaa9cc5c","svTrial","survey",25,1288009,"0.0-2.0-23.0","65553732575bb29198a888d7","655659c914e274cff2f5b9a1",6,"179809","Toyama_middle_sch_8_0.jpg",NA,NA,NA,NA,NA,NA,NA,NA,NA,NA,NA,NA,NA,NA,NA,NA,"[]","middle",2,"pos",8,18,1,1,1,1,1,1,"91945","32","male","man","","latino","","No","","It was fine. "
"19","5f9a25f467c68d13eaa9cc5c","svTrial","survey",26,1297922,"0.0-2.0-24.0","65553732575bb29198a888d7","655659c914e274cff2f5b9a1",6,"9897","Ishikawa_small_pos_4_3.jpg",NA,NA,NA,NA,NA,NA,NA,NA,NA,NA,NA,NA,NA,NA,NA,NA,"[]","small",2,"sch",4,19,1,2,1,1,1,1,"91945","32","male","man","","latino","","No","","It was fine. "
"20","5f9a25f467c68d13eaa9cc5c","svTrial","survey",27,1314576,"0.0-2.0-25.0","65553732575bb29198a888d7","655659c914e274cff2f5b9a1",6,"16638","Ishikawa_large_pos_2_1.jpg",NA,NA,NA,NA,NA,NA,NA,NA,NA,NA,NA,NA,NA,NA,NA,NA,"[]","large",2,"pos",2,20,5,3,4,5,5,1,"91945","32","male","man","","latino","","No","","It was fine. "
"21","5f9a25f467c68d13eaa9cc5c","svTrial","survey",28,1323029,"0.0-2.0-26.0","65553732575bb29198a888d7","655659c914e274cff2f5b9a1",6,"8437","Hokkaido_large_pos_9_2.jpg",NA,NA,NA,NA,NA,NA,NA,NA,NA,NA,NA,NA,NA,NA,NA,NA,"[]","small",1,"sch",9,21,1,2,1,1,1,1,"91945","32","male","man","","latino","","No","","It was fine. "
"22","5f9a25f467c68d13eaa9cc5c","svTrial","survey",29,1332439,"0.0-2.0-27.0","65553732575bb29198a888d7","655659c914e274cff2f5b9a1",6,"9393","Okinawa_middle_sch_4_0.jpg",NA,NA,NA,NA,NA,NA,NA,NA,NA,NA,NA,NA,NA,NA,NA,NA,"[]","small",1,"pos",4,22,1,1,3,1,1,1,"91945","32","male","man","","latino","","No","","It was fine. "
"23","5f9a25f467c68d13eaa9cc5c","svTrial","survey",30,1346210,"0.0-2.0-28.0","65553732575bb29198a888d7","655659c914e274cff2f5b9a1",6,"13755","Okinawa_middle_pos_1_1.jpg",NA,NA,NA,NA,NA,NA,NA,NA,NA,NA,NA,NA,NA,NA,NA,NA,"[]","middle",1,"pos",1,23,3,2,2,2,3,1,"91945","32","male","man","","latino","","No","","It was fine. "
"24","5f9a25f467c68d13eaa9cc5c","svTrial","survey",31,1472901,"0.0-2.0-29.0","65553732575bb29198a888d7","655659c914e274cff2f5b9a1",6,"126673","Okinawa_large_sch_12_3.jpg",NA,NA,NA,NA,NA,NA,NA,NA,NA,NA,NA,NA,NA,NA,NA,NA,"[]","large",1,"pos",12,24,2,4,2,2,2,1,"91945","32","male","man","","latino","","No","","It was fine. "
"25","5f9a25f467c68d13eaa9cc5c","svTrial","survey",33,1587283,"0.0-2.0-31.0","65553732575bb29198a888d7","655659c914e274cff2f5b9a1",6,"98594","Okinawa_large_pos_3_2.jpg",NA,NA,NA,NA,NA,NA,NA,NA,NA,NA,NA,NA,NA,NA,NA,NA,"[]","large",1,"sch",3,25,5,2,3,3,2,1,"91945","32","male","man","","latino","","No","","It was fine. "
"26","5f9a25f467c68d13eaa9cc5c","svTrial","survey",34,1619749,"0.0-2.0-32.0","65553732575bb29198a888d7","655659c914e274cff2f5b9a1",6,"32449","Ishikawa_middle_pos_1_2.jpg",NA,NA,NA,NA,NA,NA,NA,NA,NA,NA,NA,NA,NA,NA,NA,NA,"[]","small",2,"sch",1,26,3,3,2,2,1,1,"91945","32","male","man","","latino","","No","","It was fine. "
"27","5f9a25f467c68d13eaa9cc5c","svTrial","survey",35,1766344,"0.0-2.0-33.0","65553732575bb29198a888d7","655659c914e274cff2f5b9a1",6,"146581","Niigata_large_pos_5_0.jpg",NA,NA,NA,NA,NA,NA,NA,NA,NA,NA,NA,NA,NA,NA,NA,NA,"[]","small",2,"sch",5,27,3,3,2,2,2,1,"91945","32","male","man","","latino","","No","","It was fine. "
"28","5f9a25f467c68d13eaa9cc5c","svTrial","survey",36,1778831,"0.0-2.0-34.0","65553732575bb29198a888d7","655659c914e274cff2f5b9a1",6,"12474","Hokkaido_large_pos_10_3.jpg",NA,NA,NA,NA,NA,NA,NA,NA,NA,NA,NA,NA,NA,NA,NA,NA,"[]","small",1,"sch",10,28,2,2,1,1,1,1,"91945","32","male","man","","latino","","No","","It was fine. "
"29","5f9a25f467c68d13eaa9cc5c","svTrial","survey",37,1847594,"0.0-2.0-35.0","65553732575bb29198a888d7","655659c914e274cff2f5b9a1",6,"68748","Akita_large_pos_7_1.jpg",NA,NA,NA,NA,NA,NA,NA,NA,NA,NA,NA,NA,NA,NA,NA,NA,"[]","large",2,"sch",7,29,2,2,1,1,1,1,"91945","32","male","man","","latino","","No","","It was fine. "
"30","5f9a25f467c68d13eaa9cc5c","svTrial","survey",38,1982226,"0.0-2.0-36.0","65553732575bb29198a888d7","655659c914e274cff2f5b9a1",6,"134618","Okinawa_large_pos_9_2.jpg",NA,NA,NA,NA,NA,NA,NA,NA,NA,NA,NA,NA,NA,NA,NA,NA,"[]","small",1,"sch",9,30,1,2,1,2,2,1,"91945","32","male","man","","latino","","No","","It was fine. "
"31","5f9a25f467c68d13eaa9cc5c","svTrial","survey",39,2008671,"0.0-2.0-37.0","65553732575bb29198a888d7","655659c914e274cff2f5b9a1",6,"26430","Okinawa_middle_sch_1_0.jpg",NA,NA,NA,NA,NA,NA,NA,NA,NA,NA,NA,NA,NA,NA,NA,NA,"[]","small",1,"sch",1,31,1,1,1,1,1,1,"91945","32","male","man","","latino","","No","","It was fine. "
"32","5f9a25f467c68d13eaa9cc5c","svTrial","survey",40,2041318,"0.0-2.0-38.0","65553732575bb29198a888d7","655659c914e274cff2f5b9a1",6,"32632","Akita_middle_sch_8_1.jpg",NA,NA,NA,NA,NA,NA,NA,NA,NA,NA,NA,NA,NA,NA,NA,NA,"[]","large",2,"sch",8,32,4,3,2,2,2,1,"91945","32","male","man","","latino","","No","","It was fine. "
"33","5f9a25f467c68d13eaa9cc5c","svTrial","survey",41,2080804,"0.0-2.0-39.0","65553732575bb29198a888d7","655659c914e274cff2f5b9a1",6,"39471","Kanagawa_middle_pos_1_2.jpg",NA,NA,NA,NA,NA,NA,NA,NA,NA,NA,NA,NA,NA,NA,NA,NA,"[]","small",1,"pos",1,33,2,3,2,2,2,1,"91945","32","male","man","","latino","","No","","It was fine. "
"34","5f9a25f467c68d13eaa9cc5c","svTrial","survey",42,2089758,"0.0-2.0-40.0","65553732575bb29198a888d7","655659c914e274cff2f5b9a1",6,"8937","Okinawa_large_pos_2_2.jpg",NA,NA,NA,NA,NA,NA,NA,NA,NA,NA,NA,NA,NA,NA,NA,NA,"[]","small",1,"sch",2,34,2,3,2,1,2,1,"91945","32","male","man","","latino","","No","","It was fine. "
"35","5f9a25f467c68d13eaa9cc5c","svTrial","survey",43,2102477,"0.0-2.0-41.0","65553732575bb29198a888d7","655659c914e274cff2f5b9a1",6,"12704","Niigata_large_pos_12_1.jpg",NA,NA,NA,NA,NA,NA,NA,NA,NA,NA,NA,NA,NA,NA,NA,NA,"[]","large",2,"pos",12,35,1,1,5,1,1,1,"91945","32","male","man","","latino","","No","","It was fine. "
"36","5f9a25f467c68d13eaa9cc5c","svTrial","survey",45,2143317,"0.0-2.0-43.0","65553732575bb29198a888d7","655659c914e274cff2f5b9a1",6,"32320","Okinawa_middle_pos_3_1.jpg",NA,NA,NA,NA,NA,NA,NA,NA,NA,NA,NA,NA,NA,NA,NA,NA,"[]","middle",1,"sch",3,36,2,2,1,2,1,1,"91945","32","male","man","","latino","","No","","It was fine. "
"37","5f9a25f467c68d13eaa9cc5c","svTrial","survey",46,2153574,"0.0-2.0-44.0","65553732575bb29198a888d7","655659c914e274cff2f5b9a1",6,"10239","Akita_middle_pos_5_1.jpg",NA,NA,NA,NA,NA,NA,NA,NA,NA,NA,NA,NA,NA,NA,NA,NA,"[]","middle",2,"sch",5,37,1,1,1,1,1,1,"91945","32","male","man","","latino","","No","","It was fine. "
"38","5f9a25f467c68d13eaa9cc5c","svTrial","survey",47,2161086,"0.0-2.0-45.0","65553732575bb29198a888d7","655659c914e274cff2f5b9a1",6,"7497","Akita_middle_pos_1_3.jpg",NA,NA,NA,NA,NA,NA,NA,NA,NA,NA,NA,NA,NA,NA,NA,NA,"[]","middle",2,"pos",1,38,2,2,1,2,1,1,"91945","32","male","man","","latino","","No","","It was fine. "
"39","5f9a25f467c68d13eaa9cc5c","svTrial","survey",48,2171590,"0.0-2.0-46.0","65553732575bb29198a888d7","655659c914e274cff2f5b9a1",6,"10489","Akita_large_sch_12_2.jpg",NA,NA,NA,NA,NA,NA,NA,NA,NA,NA,NA,NA,NA,NA,NA,NA,"[]","small",2,"pos",12,39,4,3,3,3,2,1,"91945","32","male","man","","latino","","No","","It was fine. "
"40","5f9a25f467c68d13eaa9cc5c","svTrial","survey",49,2350495,"0.0-2.0-47.0","65553732575bb29198a888d7","655659c914e274cff2f5b9a1",6,"178891","Akita_large_pos_10_0.jpg",NA,NA,NA,NA,NA,NA,NA,NA,NA,NA,NA,NA,NA,NA,NA,NA,"[]","middle",2,"pos",10,40,2,2,1,1,1,1,"91945","32","male","man","","latino","","No","","It was fine. "
"41","5f9a25f467c68d13eaa9cc5c","svTrial","survey",50,2360857,"0.0-2.0-48.0","65553732575bb29198a888d7","655659c914e274cff2f5b9a1",6,"10346","Ishikawa_large_sch_3_1.jpg",NA,NA,NA,NA,NA,NA,NA,NA,NA,NA,NA,NA,NA,NA,NA,NA,"[]","middle",2,"pos",3,41,1,1,1,1,1,1,"91945","32","male","man","","latino","","No","","It was fine. "
"42","5f9a25f467c68d13eaa9cc5c","svTrial","survey",51,2402746,"0.0-2.0-49.0","65553732575bb29198a888d7","655659c914e274cff2f5b9a1",6,"41875","Okinawa_small_sch_1_0.jpg",NA,NA,NA,NA,NA,NA,NA,NA,NA,NA,NA,NA,NA,NA,NA,NA,"[]","middle",1,"pos",1,42,5,3,4,4,4,1,"91945","32","male","man","","latino","","No","","It was fine. "
"43","5f9a25f467c68d13eaa9cc5c","svTrial","survey",52,2508137,"0.0-2.0-50.0","65553732575bb29198a888d7","655659c914e274cff2f5b9a1",6,"105376","Hokkaido_large_sch_8_1.jpg",NA,NA,NA,NA,NA,NA,NA,NA,NA,NA,NA,NA,NA,NA,NA,NA,"[]","large",1,"pos",8,43,3,2,2,1,1,1,"91945","32","male","man","","latino","","No","","It was fine. "
"44","5f9a25f467c68d13eaa9cc5c","svTrial","survey",53,2540008,"0.0-2.0-51.0","65553732575bb29198a888d7","655659c914e274cff2f5b9a1",6,"31854","Tokyo_middle_sch_2_3.jpg",NA,NA,NA,NA,NA,NA,NA,NA,NA,NA,NA,NA,NA,NA,NA,NA,"[]","middle",1,"pos",2,44,5,4,3,3,4,1,"91945","32","male","man","","latino","","No","","It was fine. "
"45","5f9a25f467c68d13eaa9cc5c","svTrial","survey",54,2603662,"0.0-2.0-52.0","65553732575bb29198a888d7","655659c914e274cff2f5b9a1",6,"63639","Toyama_large_pos_1_2.jpg",NA,NA,NA,NA,NA,NA,NA,NA,NA,NA,NA,NA,NA,NA,NA,NA,"[]","large",2,"sch",1,45,3,2,3,2,2,1,"91945","32","male","man","","latino","","No","","It was fine. "
"46","5f9a25f467c68d13eaa9cc5c","svTrial","survey",55,2623012,"0.0-2.0-53.0","65553732575bb29198a888d7","655659c914e274cff2f5b9a1",6,"19336","Ishikawa_large_sch_10_0.jpg",NA,NA,NA,NA,NA,NA,NA,NA,NA,NA,NA,NA,NA,NA,NA,NA,"[]","middle",2,"pos",10,46,1,2,1,1,1,1,"91945","32","male","man","","latino","","No","","It was fine. "
"47","5f9a25f467c68d13eaa9cc5c","svTrial","survey",56,2641850,"0.0-2.0-54.0","65553732575bb29198a888d7","655659c914e274cff2f5b9a1",6,"18823","Okinawa_large_sch_5_2.jpg",NA,NA,NA,NA,NA,NA,NA,NA,NA,NA,NA,NA,NA,NA,NA,NA,"[]","small",1,"pos",5,47,4,4,2,2,2,1,"91945","32","male","man","","latino","","No","","It was fine. "
"48","5f9a25f467c68d13eaa9cc5c","svTrial","survey",57,2656522,"0.0-2.0-55.0","65553732575bb29198a888d7","655659c914e274cff2f5b9a1",6,"14658","Okinawa_large_pos_5_3.jpg",NA,NA,NA,NA,NA,NA,NA,NA,NA,NA,NA,NA,NA,NA,NA,NA,"[]","middle",1,"sch",5,48,2,1,1,1,2,1,"91945","32","male","man","","latino","","No","","It was fine. "
