"","subject_id","task","trial_type","trial_index","time_elapsed","internal_node_id","study_id","session_id","group","rt","stimulus","width","height","webaudio","browser","browser_version","mobile","os","fullscreen","vsync_rate","webcam","microphone","success","timeout","failed_images","failed_audio","failed_video","accuracy","size","culture","loct","number","document.id","ambiguous","objects","invisible","chaos","complex","passedChecks","zipcode","age","sex","gender","gender-self-describe","ethnicity","ethnicity-self-describe","outsideUS","outsideUS_years","surveyComments"
"1","5fe3f539dd8cf10e7d545231","svTrial","survey",8,244577,"0.0-2.0-6.0","65553732575bb29198a888d7","65565c0a82174b3b168720cc",5,"29920","Kanagawa_large_pos_3_2.jpg",NA,NA,NA,NA,NA,NA,NA,NA,NA,NA,NA,NA,NA,NA,NA,NA,"[]","small",1,"sch",3,1,4,3,2,3,2,1,"76133","33","male","man","","latino","","No","","on trial 33/48 i received no picture instead it said ""sorry we have no imagery here"""
"2","5fe3f539dd8cf10e7d545231","svTrial","survey",9,278036,"0.0-2.0-7.0","65553732575bb29198a888d7","65565c0a82174b3b168720cc",5,"33448","Ishikawa_small_sch_4_0.jpg",NA,NA,NA,NA,NA,NA,NA,NA,NA,NA,NA,NA,NA,NA,NA,NA,"[]","small",2,"sch",4,2,5,4,5,2,2,1,"76133","33","male","man","","latino","","No","","on trial 33/48 i received no picture instead it said ""sorry we have no imagery here"""
"3","5fe3f539dd8cf10e7d545231","svTrial","survey",10,357411,"0.0-2.0-8.0","65553732575bb29198a888d7","65565c0a82174b3b168720cc",5,"79364","Toyama_large_pos_4_0.jpg",NA,NA,NA,NA,NA,NA,NA,NA,NA,NA,NA,NA,NA,NA,NA,NA,"[]","small",2,"sch",4,3,3,4,3,1,1,1,"76133","33","male","man","","latino","","No","","on trial 33/48 i received no picture instead it said ""sorry we have no imagery here"""
"4","5fe3f539dd8cf10e7d545231","svTrial","survey",11,378374,"0.0-2.0-9.0","65553732575bb29198a888d7","65565c0a82174b3b168720cc",5,"20954","Ishikawa_large_pos_10_1.jpg",NA,NA,NA,NA,NA,NA,NA,NA,NA,NA,NA,NA,NA,NA,NA,NA,"[]","small",2,"pos",10,4,5,2,1,1,1,1,"76133","33","male","man","","latino","","No","","on trial 33/48 i received no picture instead it said ""sorry we have no imagery here"""
"5","5fe3f539dd8cf10e7d545231","svTrial","survey",12,401964,"0.0-2.0-10.0","65553732575bb29198a888d7","65565c0a82174b3b168720cc",5,"23580","Hokkaido_large_sch_2_3.jpg",NA,NA,NA,NA,NA,NA,NA,NA,NA,NA,NA,NA,NA,NA,NA,NA,"[]","small",1,"sch",2,5,2,2,1,1,1,1,"76133","33","male","man","","latino","","No","","on trial 33/48 i received no picture instead it said ""sorry we have no imagery here"""
"6","5fe3f539dd8cf10e7d545231","svTrial","survey",13,437251,"0.0-2.0-11.0","65553732575bb29198a888d7","65565c0a82174b3b168720cc",5,"35278","Kanagawa_large_sch_8_3.jpg",NA,NA,NA,NA,NA,NA,NA,NA,NA,NA,NA,NA,NA,NA,NA,NA,"[]","small",1,"pos",8,6,4,3,3,1,2,1,"76133","33","male","man","","latino","","No","","on trial 33/48 i received no picture instead it said ""sorry we have no imagery here"""
"7","5fe3f539dd8cf10e7d545231","svTrial","survey",14,576642,"0.0-2.0-12.0","65553732575bb29198a888d7","65565c0a82174b3b168720cc",5,"139382","Tokyo_large_pos_7_2.jpg",NA,NA,NA,NA,NA,NA,NA,NA,NA,NA,NA,NA,NA,NA,NA,NA,"[]","large",1,"pos",7,7,3,1,3,1,1,1,"76133","33","male","man","","latino","","No","","on trial 33/48 i received no picture instead it said ""sorry we have no imagery here"""
"8","5fe3f539dd8cf10e7d545231","svTrial","survey",15,589713,"0.0-2.0-13.0","65553732575bb29198a888d7","65565c0a82174b3b168720cc",5,"13063","Hokkaido_small_sch_3_3.jpg",NA,NA,NA,NA,NA,NA,NA,NA,NA,NA,NA,NA,NA,NA,NA,NA,"[]","small",1,"sch",3,8,1,2,3,1,1,1,"76133","33","male","man","","latino","","No","","on trial 33/48 i received no picture instead it said ""sorry we have no imagery here"""
"9","5fe3f539dd8cf10e7d545231","svTrial","survey",16,603549,"0.0-2.0-14.0","65553732575bb29198a888d7","65565c0a82174b3b168720cc",5,"13827","Niigata_small_pos_3_1.jpg",NA,NA,NA,NA,NA,NA,NA,NA,NA,NA,NA,NA,NA,NA,NA,NA,"[]","small",2,"pos",3,9,5,1,1,1,1,1,"76133","33","male","man","","latino","","No","","on trial 33/48 i received no picture instead it said ""sorry we have no imagery here"""
"10","5fe3f539dd8cf10e7d545231","svTrial","survey",17,618159,"0.0-2.0-15.0","65553732575bb29198a888d7","65565c0a82174b3b168720cc",5,"14602","Toyama_small_sch_1_1.jpg",NA,NA,NA,NA,NA,NA,NA,NA,NA,NA,NA,NA,NA,NA,NA,NA,"[]","small",2,"sch",1,10,1,2,1,1,1,1,"76133","33","male","man","","latino","","No","","on trial 33/48 i received no picture instead it said ""sorry we have no imagery here"""
"11","5fe3f539dd8cf10e7d545231","svTrial","survey",18,632885,"0.0-2.0-16.0","65553732575bb29198a888d7","65565c0a82174b3b168720cc",5,"14717","Okinawa_middle_sch_3_0.jpg",NA,NA,NA,NA,NA,NA,NA,NA,NA,NA,NA,NA,NA,NA,NA,NA,"[]","middle",1,"pos",3,11,3,1,3,1,1,1,"76133","33","male","man","","latino","","No","","on trial 33/48 i received no picture instead it said ""sorry we have no imagery here"""
"12","5fe3f539dd8cf10e7d545231","svTrial","survey",19,646227,"0.0-2.0-17.0","65553732575bb29198a888d7","65565c0a82174b3b168720cc",5,"13333","Kanagawa_small_sch_3_0.jpg",NA,NA,NA,NA,NA,NA,NA,NA,NA,NA,NA,NA,NA,NA,NA,NA,"[]","small",1,"pos",3,12,2,1,2,1,1,1,"76133","33","male","man","","latino","","No","","on trial 33/48 i received no picture instead it said ""sorry we have no imagery here"""
"13","5fe3f539dd8cf10e7d545231","svTrial","survey",20,659761,"0.0-2.0-18.0","65553732575bb29198a888d7","65565c0a82174b3b168720cc",5,"13526","Akita_large_pos_1_3.jpg",NA,NA,NA,NA,NA,NA,NA,NA,NA,NA,NA,NA,NA,NA,NA,NA,"[]","large",2,"pos",1,13,2,2,2,1,1,1,"76133","33","male","man","","latino","","No","","on trial 33/48 i received no picture instead it said ""sorry we have no imagery here"""
"14","5fe3f539dd8cf10e7d545231","svTrial","survey",21,786970,"0.0-2.0-19.0","65553732575bb29198a888d7","65565c0a82174b3b168720cc",5,"127199","Ishikawa_middle_pos_7_2.jpg",NA,NA,NA,NA,NA,NA,NA,NA,NA,NA,NA,NA,NA,NA,NA,NA,"[]","small",2,"sch",7,14,3,1,3,1,1,1,"76133","33","male","man","","latino","","No","","on trial 33/48 i received no picture instead it said ""sorry we have no imagery here"""
"15","5fe3f539dd8cf10e7d545231","svTrial","survey",22,801300,"0.0-2.0-20.0","65553732575bb29198a888d7","65565c0a82174b3b168720cc",5,"14323","Niigata_large_pos_1_0.jpg",NA,NA,NA,NA,NA,NA,NA,NA,NA,NA,NA,NA,NA,NA,NA,NA,"[]","middle",2,"pos",1,15,3,3,4,1,2,1,"76133","33","male","man","","latino","","No","","on trial 33/48 i received no picture instead it said ""sorry we have no imagery here"""
"16","5fe3f539dd8cf10e7d545231","svTrial","survey",23,811190,"0.0-2.0-21.0","65553732575bb29198a888d7","65565c0a82174b3b168720cc",5,"9882","Tokyo_large_sch_7_2.jpg",NA,NA,NA,NA,NA,NA,NA,NA,NA,NA,NA,NA,NA,NA,NA,NA,"[]","large",1,"pos",7,16,2,1,2,1,1,1,"76133","33","male","man","","latino","","No","","on trial 33/48 i received no picture instead it said ""sorry we have no imagery here"""
"17","5fe3f539dd8cf10e7d545231","svTrial","survey",24,834122,"0.0-2.0-22.0","65553732575bb29198a888d7","65565c0a82174b3b168720cc",5,"22925","Ishikawa_large_sch_4_3.jpg",NA,NA,NA,NA,NA,NA,NA,NA,NA,NA,NA,NA,NA,NA,NA,NA,"[]","middle",2,"sch",4,17,5,3,5,3,4,1,"76133","33","male","man","","latino","","No","","on trial 33/48 i received no picture instead it said ""sorry we have no imagery here"""
"18","5fe3f539dd8cf10e7d545231","svTrial","survey",25,849370,"0.0-2.0-23.0","65553732575bb29198a888d7","65565c0a82174b3b168720cc",5,"15240","Okinawa_large_sch_4_2.jpg",NA,NA,NA,NA,NA,NA,NA,NA,NA,NA,NA,NA,NA,NA,NA,NA,"[]","middle",1,"pos",4,18,3,2,2,2,2,1,"76133","33","male","man","","latino","","No","","on trial 33/48 i received no picture instead it said ""sorry we have no imagery here"""
"19","5fe3f539dd8cf10e7d545231","svTrial","survey",26,865195,"0.0-2.0-24.0","65553732575bb29198a888d7","65565c0a82174b3b168720cc",5,"15816","Akita_middle_sch_1_0.jpg",NA,NA,NA,NA,NA,NA,NA,NA,NA,NA,NA,NA,NA,NA,NA,NA,"[]","middle",2,"pos",1,19,3,3,4,3,4,1,"76133","33","male","man","","latino","","No","","on trial 33/48 i received no picture instead it said ""sorry we have no imagery here"""
"20","5fe3f539dd8cf10e7d545231","svTrial","survey",27,881409,"0.0-2.0-25.0","65553732575bb29198a888d7","65565c0a82174b3b168720cc",5,"16207","Ishikawa_large_pos_8_2.jpg",NA,NA,NA,NA,NA,NA,NA,NA,NA,NA,NA,NA,NA,NA,NA,NA,"[]","large",2,"pos",8,20,3,3,2,1,2,1,"76133","33","male","man","","latino","","No","","on trial 33/48 i received no picture instead it said ""sorry we have no imagery here"""
"21","5fe3f539dd8cf10e7d545231","svTrial","survey",28,908353,"0.0-2.0-26.0","65553732575bb29198a888d7","65565c0a82174b3b168720cc",5,"26934","Toyama_large_pos_9_1.jpg",NA,NA,NA,NA,NA,NA,NA,NA,NA,NA,NA,NA,NA,NA,NA,NA,"[]","middle",2,"sch",9,21,5,4,4,4,5,1,"76133","33","male","man","","latino","","No","","on trial 33/48 i received no picture instead it said ""sorry we have no imagery here"""
"22","5fe3f539dd8cf10e7d545231","svTrial","survey",29,923400,"0.0-2.0-27.0","65553732575bb29198a888d7","65565c0a82174b3b168720cc",5,"15038","Tokyo_large_pos_2_3.jpg",NA,NA,NA,NA,NA,NA,NA,NA,NA,NA,NA,NA,NA,NA,NA,NA,"[]","small",1,"sch",2,22,3,3,3,2,2,1,"76133","33","male","man","","latino","","No","","on trial 33/48 i received no picture instead it said ""sorry we have no imagery here"""
"23","5fe3f539dd8cf10e7d545231","svTrial","survey",30,1061511,"0.0-2.0-28.0","65553732575bb29198a888d7","65565c0a82174b3b168720cc",5,"138103","Tokyo_middle_sch_6_0.jpg",NA,NA,NA,NA,NA,NA,NA,NA,NA,NA,NA,NA,NA,NA,NA,NA,"[]","small",1,"sch",6,23,4,3,3,4,4,1,"76133","33","male","man","","latino","","No","","on trial 33/48 i received no picture instead it said ""sorry we have no imagery here"""
"24","5fe3f539dd8cf10e7d545231","svTrial","survey",31,1082654,"0.0-2.0-29.0","65553732575bb29198a888d7","65565c0a82174b3b168720cc",5,"21135","Hokkaido_large_pos_5_1.jpg",NA,NA,NA,NA,NA,NA,NA,NA,NA,NA,NA,NA,NA,NA,NA,NA,"[]","small",1,"pos",5,24,3,5,3,2,3,1,"76133","33","male","man","","latino","","No","","on trial 33/48 i received no picture instead it said ""sorry we have no imagery here"""
"25","5fe3f539dd8cf10e7d545231","svTrial","survey",33,1096846,"0.0-2.0-31.0","65553732575bb29198a888d7","65565c0a82174b3b168720cc",5,"8471","Tokyo_large_sch_8_2.jpg",NA,NA,NA,NA,NA,NA,NA,NA,NA,NA,NA,NA,NA,NA,NA,NA,"[]","large",1,"sch",8,25,1,2,1,1,1,1,"76133","33","male","man","","latino","","No","","on trial 33/48 i received no picture instead it said ""sorry we have no imagery here"""
"26","5fe3f539dd8cf10e7d545231","svTrial","survey",34,1144378,"0.0-2.0-32.0","65553732575bb29198a888d7","65565c0a82174b3b168720cc",5,"47523","Niigata_middle_pos_6_2.jpg",NA,NA,NA,NA,NA,NA,NA,NA,NA,NA,NA,NA,NA,NA,NA,NA,"[]","small",2,"sch",6,26,3,4,3,2,2,1,"76133","33","male","man","","latino","","No","","on trial 33/48 i received no picture instead it said ""sorry we have no imagery here"""
"27","5fe3f539dd8cf10e7d545231","svTrial","survey",36,1164397,"0.0-2.0-34.0","65553732575bb29198a888d7","65565c0a82174b3b168720cc",5,"10538","Hokkaido_middle_pos_4_0.jpg",NA,NA,NA,NA,NA,NA,NA,NA,NA,NA,NA,NA,NA,NA,NA,NA,"[]","middle",1,"sch",4,27,1,1,1,1,1,1,"76133","33","male","man","","latino","","No","","on trial 33/48 i received no picture instead it said ""sorry we have no imagery here"""
"28","5fe3f539dd8cf10e7d545231","svTrial","survey",37,1175561,"0.0-2.0-35.0","65553732575bb29198a888d7","65565c0a82174b3b168720cc",5,"11155","Hokkaido_small_pos_1_2.jpg",NA,NA,NA,NA,NA,NA,NA,NA,NA,NA,NA,NA,NA,NA,NA,NA,"[]","small",1,"pos",1,28,2,3,2,1,2,1,"76133","33","male","man","","latino","","No","","on trial 33/48 i received no picture instead it said ""sorry we have no imagery here"""
"29","5fe3f539dd8cf10e7d545231","svTrial","survey",38,1200199,"0.0-2.0-36.0","65553732575bb29198a888d7","65565c0a82174b3b168720cc",5,"24624","Hokkaido_small_pos_3_3.jpg",NA,NA,NA,NA,NA,NA,NA,NA,NA,NA,NA,NA,NA,NA,NA,NA,"[]","middle",1,"sch",3,29,2,3,2,1,2,1,"76133","33","male","man","","latino","","No","","on trial 33/48 i received no picture instead it said ""sorry we have no imagery here"""
"30","5fe3f539dd8cf10e7d545231","svTrial","survey",39,1225754,"0.0-2.0-37.0","65553732575bb29198a888d7","65565c0a82174b3b168720cc",5,"25548","Kanagawa_large_sch_5_0.jpg",NA,NA,NA,NA,NA,NA,NA,NA,NA,NA,NA,NA,NA,NA,NA,NA,"[]","middle",1,"pos",5,30,1,3,1,1,2,1,"76133","33","male","man","","latino","","No","","on trial 33/48 i received no picture instead it said ""sorry we have no imagery here"""
"31","5fe3f539dd8cf10e7d545231","svTrial","survey",40,1238195,"0.0-2.0-38.0","65553732575bb29198a888d7","65565c0a82174b3b168720cc",5,"12432","Akita_large_pos_12_0.jpg",NA,NA,NA,NA,NA,NA,NA,NA,NA,NA,NA,NA,NA,NA,NA,NA,"[]","small",2,"sch",12,31,2,3,2,1,2,1,"76133","33","male","man","","latino","","No","","on trial 33/48 i received no picture instead it said ""sorry we have no imagery here"""
"32","5fe3f539dd8cf10e7d545231","svTrial","survey",41,1253153,"0.0-2.0-39.0","65553732575bb29198a888d7","65565c0a82174b3b168720cc",5,"14951","Toyama_large_pos_8_2.jpg",NA,NA,NA,NA,NA,NA,NA,NA,NA,NA,NA,NA,NA,NA,NA,NA,"[]","large",2,"pos",8,32,1,1,1,1,1,1,"76133","33","male","man","","latino","","No","","on trial 33/48 i received no picture instead it said ""sorry we have no imagery here"""
"33","5fe3f539dd8cf10e7d545231","svTrial","survey",42,1304616,"0.0-2.0-40.0","65553732575bb29198a888d7","65565c0a82174b3b168720cc",5,"51454","Kanagawa_small_sch_1_3.jpg",NA,NA,NA,NA,NA,NA,NA,NA,NA,NA,NA,NA,NA,NA,NA,NA,"[]","large",1,"sch",1,33,5,1,5,5,5,1,"76133","33","male","man","","latino","","No","","on trial 33/48 i received no picture instead it said ""sorry we have no imagery here"""
"34","5fe3f539dd8cf10e7d545231","svTrial","survey",43,1327874,"0.0-2.0-41.0","65553732575bb29198a888d7","65565c0a82174b3b168720cc",5,"23250","Toyama_middle_sch_1_3.jpg",NA,NA,NA,NA,NA,NA,NA,NA,NA,NA,NA,NA,NA,NA,NA,NA,"[]","large",2,"pos",1,34,3,2,5,3,3,1,"76133","33","male","man","","latino","","No","","on trial 33/48 i received no picture instead it said ""sorry we have no imagery here"""
"35","5fe3f539dd8cf10e7d545231","svTrial","survey",44,1337609,"0.0-2.0-42.0","65553732575bb29198a888d7","65565c0a82174b3b168720cc",5,"9727","Akita_small_pos_2_3.jpg",NA,NA,NA,NA,NA,NA,NA,NA,NA,NA,NA,NA,NA,NA,NA,NA,"[]","large",2,"sch",2,35,1,1,1,1,1,1,"76133","33","male","man","","latino","","No","","on trial 33/48 i received no picture instead it said ""sorry we have no imagery here"""
"36","5fe3f539dd8cf10e7d545231","svTrial","survey",45,1348764,"0.0-2.0-43.0","65553732575bb29198a888d7","65565c0a82174b3b168720cc",5,"11147","Akita_large_pos_11_1.jpg",NA,NA,NA,NA,NA,NA,NA,NA,NA,NA,NA,NA,NA,NA,NA,NA,"[]","small",2,"sch",11,36,5,3,4,4,4,1,"76133","33","male","man","","latino","","No","","on trial 33/48 i received no picture instead it said ""sorry we have no imagery here"""
"37","5fe3f539dd8cf10e7d545231","svTrial","survey",46,1360093,"0.0-2.0-44.0","65553732575bb29198a888d7","65565c0a82174b3b168720cc",5,"11321","Kanagawa_middle_sch_8_3.jpg",NA,NA,NA,NA,NA,NA,NA,NA,NA,NA,NA,NA,NA,NA,NA,NA,"[]","small",1,"sch",8,37,1,2,1,1,1,1,"76133","33","male","man","","latino","","No","","on trial 33/48 i received no picture instead it said ""sorry we have no imagery here"""
"38","5fe3f539dd8cf10e7d545231","svTrial","survey",47,1371010,"0.0-2.0-45.0","65553732575bb29198a888d7","65565c0a82174b3b168720cc",5,"10909","Niigata_large_pos_3_2.jpg",NA,NA,NA,NA,NA,NA,NA,NA,NA,NA,NA,NA,NA,NA,NA,NA,"[]","large",2,"pos",3,38,2,1,3,1,1,1,"76133","33","male","man","","latino","","No","","on trial 33/48 i received no picture instead it said ""sorry we have no imagery here"""
"39","5fe3f539dd8cf10e7d545231","svTrial","survey",48,1387846,"0.0-2.0-46.0","65553732575bb29198a888d7","65565c0a82174b3b168720cc",5,"16828","Tokyo_small_pos_2_3.jpg",NA,NA,NA,NA,NA,NA,NA,NA,NA,NA,NA,NA,NA,NA,NA,NA,"[]","small",1,"sch",2,39,2,2,2,1,1,1,"76133","33","male","man","","latino","","No","","on trial 33/48 i received no picture instead it said ""sorry we have no imagery here"""
"40","5fe3f539dd8cf10e7d545231","svTrial","survey",49,1395899,"0.0-2.0-47.0","65553732575bb29198a888d7","65565c0a82174b3b168720cc",5,"8046","Akita_large_sch_5_3.jpg",NA,NA,NA,NA,NA,NA,NA,NA,NA,NA,NA,NA,NA,NA,NA,NA,"[]","middle",2,"pos",5,40,1,2,1,1,1,1,"76133","33","male","man","","latino","","No","","on trial 33/48 i received no picture instead it said ""sorry we have no imagery here"""
"41","5fe3f539dd8cf10e7d545231","svTrial","survey",50,1405439,"0.0-2.0-48.0","65553732575bb29198a888d7","65565c0a82174b3b168720cc",5,"9531","Tokyo_middle_pos_3_0.jpg",NA,NA,NA,NA,NA,NA,NA,NA,NA,NA,NA,NA,NA,NA,NA,NA,"[]","middle",1,"pos",3,41,1,1,1,1,1,1,"76133","33","male","man","","latino","","No","","on trial 33/48 i received no picture instead it said ""sorry we have no imagery here"""
"42","5fe3f539dd8cf10e7d545231","svTrial","survey",51,1417405,"0.0-2.0-49.0","65553732575bb29198a888d7","65565c0a82174b3b168720cc",5,"11958","Kanagawa_middle_sch_5_2.jpg",NA,NA,NA,NA,NA,NA,NA,NA,NA,NA,NA,NA,NA,NA,NA,NA,"[]","large",1,"sch",5,42,4,1,3,1,1,1,"76133","33","male","man","","latino","","No","","on trial 33/48 i received no picture instead it said ""sorry we have no imagery here"""
"43","5fe3f539dd8cf10e7d545231","svTrial","survey",52,1433625,"0.0-2.0-50.0","65553732575bb29198a888d7","65565c0a82174b3b168720cc",5,"16212","Toyama_large_sch_9_3.jpg",NA,NA,NA,NA,NA,NA,NA,NA,NA,NA,NA,NA,NA,NA,NA,NA,"[]","middle",2,"sch",9,43,4,3,4,2,3,1,"76133","33","male","man","","latino","","No","","on trial 33/48 i received no picture instead it said ""sorry we have no imagery here"""
"44","5fe3f539dd8cf10e7d545231","svTrial","survey",53,1443019,"0.0-2.0-51.0","65553732575bb29198a888d7","65565c0a82174b3b168720cc",5,"9386","Hokkaido_small_sch_2_3.jpg",NA,NA,NA,NA,NA,NA,NA,NA,NA,NA,NA,NA,NA,NA,NA,NA,"[]","small",1,"pos",2,44,1,2,1,1,1,1,"76133","33","male","man","","latino","","No","","on trial 33/48 i received no picture instead it said ""sorry we have no imagery here"""
"45","5fe3f539dd8cf10e7d545231","svTrial","survey",54,1453766,"0.0-2.0-52.0","65553732575bb29198a888d7","65565c0a82174b3b168720cc",5,"10740","Akita_large_sch_8_1.jpg",NA,NA,NA,NA,NA,NA,NA,NA,NA,NA,NA,NA,NA,NA,NA,NA,"[]","middle",2,"pos",8,45,2,3,2,1,1,1,"76133","33","male","man","","latino","","No","","on trial 33/48 i received no picture instead it said ""sorry we have no imagery here"""
"46","5fe3f539dd8cf10e7d545231","svTrial","survey",55,1467966,"0.0-2.0-53.0","65553732575bb29198a888d7","65565c0a82174b3b168720cc",5,"14193","Kanagawa_middle_pos_4_2.jpg",NA,NA,NA,NA,NA,NA,NA,NA,NA,NA,NA,NA,NA,NA,NA,NA,"[]","small",1,"sch",4,46,3,2,3,1,1,1,"76133","33","male","man","","latino","","No","","on trial 33/48 i received no picture instead it said ""sorry we have no imagery here"""
"47","5fe3f539dd8cf10e7d545231","svTrial","survey",56,1480696,"0.0-2.0-54.0","65553732575bb29198a888d7","65565c0a82174b3b168720cc",5,"12722","Akita_large_sch_4_3.jpg",NA,NA,NA,NA,NA,NA,NA,NA,NA,NA,NA,NA,NA,NA,NA,NA,"[]","small",2,"pos",4,47,1,2,2,2,2,1,"76133","33","male","man","","latino","","No","","on trial 33/48 i received no picture instead it said ""sorry we have no imagery here"""
"48","5fe3f539dd8cf10e7d545231","svTrial","survey",57,1489816,"0.0-2.0-55.0","65553732575bb29198a888d7","65565c0a82174b3b168720cc",5,"9112","Ishikawa_small_sch_1_2.jpg",NA,NA,NA,NA,NA,NA,NA,NA,NA,NA,NA,NA,NA,NA,NA,NA,"[]","large",2,"sch",1,48,2,1,2,1,1,1,"76133","33","male","man","","latino","","No","","on trial 33/48 i received no picture instead it said ""sorry we have no imagery here"""
