"","subject_id","task","trial_type","trial_index","time_elapsed","internal_node_id","study_id","session_id","group","rt","stimulus","width","height","webaudio","browser","browser_version","mobile","os","fullscreen","vsync_rate","webcam","microphone","success","timeout","failed_images","failed_audio","failed_video","accuracy","size","culture","loct","number","document.id","ambiguous","objects","invisible","chaos","complex","passedChecks","zipcode","age","sex","gender","gender-self-describe","ethnicity","ethnicity-self-describe","outsideUS","outsideUS_years","surveyComments"
"1","5ffff3ac6fc9001772ea3312","svTrial","survey",8,178889,"0.0-2.0-6.0","65553732575bb29198a888d7","655658abd643c3a98feb10cc",2,"30642","Toyama_large_sch_12_2.jpg",NA,NA,NA,NA,NA,NA,NA,NA,NA,NA,NA,NA,NA,NA,NA,NA,"[]","small",2,"pos",12,1,3,3,4,3,2,1,"02910","32","female","woman","","caucasian","","No","",""
"2","5ffff3ac6fc9001772ea3312","svTrial","survey",9,204281,"0.0-2.0-7.0","65553732575bb29198a888d7","655658abd643c3a98feb10cc",2,"25357","Kanagawa_small_pos_2_3.jpg",NA,NA,NA,NA,NA,NA,NA,NA,NA,NA,NA,NA,NA,NA,NA,NA,"[]","small",1,"sch",2,2,2,4,2,2,3,1,"02910","32","female","woman","","caucasian","","No","",""
"3","5ffff3ac6fc9001772ea3312","svTrial","survey",10,232424,"0.0-2.0-8.0","65553732575bb29198a888d7","655658abd643c3a98feb10cc",2,"28114","Niigata_large_pos_6_2.jpg",NA,NA,NA,NA,NA,NA,NA,NA,NA,NA,NA,NA,NA,NA,NA,NA,"[]","large",2,"sch",6,3,4,1,2,1,1,1,"02910","32","female","woman","","caucasian","","No","",""
"4","5ffff3ac6fc9001772ea3312","svTrial","survey",11,251069,"0.0-2.0-9.0","65553732575bb29198a888d7","655658abd643c3a98feb10cc",2,"18614","Tokyo_large_pos_6_3.jpg",NA,NA,NA,NA,NA,NA,NA,NA,NA,NA,NA,NA,NA,NA,NA,NA,"[]","middle",1,"pos",6,4,2,3,3,1,2,1,"02910","32","female","woman","","caucasian","","No","",""
"5","5ffff3ac6fc9001772ea3312","svTrial","survey",12,267858,"0.0-2.0-10.0","65553732575bb29198a888d7","655658abd643c3a98feb10cc",2,"16762","Toyama_large_sch_1_0.jpg",NA,NA,NA,NA,NA,NA,NA,NA,NA,NA,NA,NA,NA,NA,NA,NA,"[]","middle",2,"sch",1,5,4,3,4,3,2,1,"02910","32","female","woman","","caucasian","","No","",""
"6","5ffff3ac6fc9001772ea3312","svTrial","survey",13,293078,"0.0-2.0-11.0","65553732575bb29198a888d7","655658abd643c3a98feb10cc",2,"25188","Okinawa_large_sch_9_2.jpg",NA,NA,NA,NA,NA,NA,NA,NA,NA,NA,NA,NA,NA,NA,NA,NA,"[]","small",1,"sch",9,6,3,2,4,3,2,1,"02910","32","female","woman","","caucasian","","No","",""
"7","5ffff3ac6fc9001772ea3312","svTrial","survey",14,307995,"0.0-2.0-12.0","65553732575bb29198a888d7","655658abd643c3a98feb10cc",2,"14886","Akita_large_pos_8_3.jpg",NA,NA,NA,NA,NA,NA,NA,NA,NA,NA,NA,NA,NA,NA,NA,NA,"[]","middle",2,"pos",8,7,2,2,2,1,1,1,"02910","32","female","woman","","caucasian","","No","",""
"8","5ffff3ac6fc9001772ea3312","svTrial","survey",16,334087,"0.0-2.0-14.0","65553732575bb29198a888d7","655658abd643c3a98feb10cc",2,"20245","Tokyo_large_pos_5_3.jpg",NA,NA,NA,NA,NA,NA,NA,NA,NA,NA,NA,NA,NA,NA,NA,NA,"[]","middle",1,"pos",5,8,2,1,1,1,1,1,"02910","32","female","woman","","caucasian","","No","",""
"9","5ffff3ac6fc9001772ea3312","svTrial","survey",17,344621,"0.0-2.0-15.0","65553732575bb29198a888d7","655658abd643c3a98feb10cc",2,"10499","Toyama_middle_pos_4_2.jpg",NA,NA,NA,NA,NA,NA,NA,NA,NA,NA,NA,NA,NA,NA,NA,NA,"[]","large",2,"sch",4,9,1,1,1,1,1,1,"02910","32","female","woman","","caucasian","","No","",""
"10","5ffff3ac6fc9001772ea3312","svTrial","survey",18,365699,"0.0-2.0-16.0","65553732575bb29198a888d7","655658abd643c3a98feb10cc",2,"21051","Hokkaido_large_sch_6_3.jpg",NA,NA,NA,NA,NA,NA,NA,NA,NA,NA,NA,NA,NA,NA,NA,NA,"[]","small",1,"pos",6,10,3,4,3,3,2,1,"02910","32","female","woman","","caucasian","","No","",""
"11","5ffff3ac6fc9001772ea3312","svTrial","survey",19,379874,"0.0-2.0-17.0","65553732575bb29198a888d7","655658abd643c3a98feb10cc",2,"14145","Toyama_middle_pos_2_3.jpg",NA,NA,NA,NA,NA,NA,NA,NA,NA,NA,NA,NA,NA,NA,NA,NA,"[]","middle",2,"pos",2,11,4,2,3,4,2,1,"02910","32","female","woman","","caucasian","","No","",""
"12","5ffff3ac6fc9001772ea3312","svTrial","survey",20,394162,"0.0-2.0-18.0","65553732575bb29198a888d7","655658abd643c3a98feb10cc",2,"14262","Ishikawa_large_sch_5_2.jpg",NA,NA,NA,NA,NA,NA,NA,NA,NA,NA,NA,NA,NA,NA,NA,NA,"[]","large",2,"sch",5,12,2,2,2,1,2,1,"02910","32","female","woman","","caucasian","","No","",""
"13","5ffff3ac6fc9001772ea3312","svTrial","survey",21,407022,"0.0-2.0-19.0","65553732575bb29198a888d7","655658abd643c3a98feb10cc",2,"12832","Ishikawa_large_sch_1_1.jpg",NA,NA,NA,NA,NA,NA,NA,NA,NA,NA,NA,NA,NA,NA,NA,NA,"[]","middle",2,"sch",1,13,1,1,1,1,1,1,"02910","32","female","woman","","caucasian","","No","",""
"14","5ffff3ac6fc9001772ea3312","svTrial","survey",22,424812,"0.0-2.0-20.0","65553732575bb29198a888d7","655658abd643c3a98feb10cc",2,"17761","Hokkaido_middle_sch_5_3.jpg",NA,NA,NA,NA,NA,NA,NA,NA,NA,NA,NA,NA,NA,NA,NA,NA,"[]","small",1,"pos",5,14,4,4,3,4,3,1,"02910","32","female","woman","","caucasian","","No","",""
"15","5ffff3ac6fc9001772ea3312","svTrial","survey",23,438197,"0.0-2.0-21.0","65553732575bb29198a888d7","655658abd643c3a98feb10cc",2,"13359","Kanagawa_large_sch_3_3.jpg",NA,NA,NA,NA,NA,NA,NA,NA,NA,NA,NA,NA,NA,NA,NA,NA,"[]","small",1,"pos",3,15,4,3,4,5,3,1,"02910","32","female","woman","","caucasian","","No","",""
"16","5ffff3ac6fc9001772ea3312","svTrial","survey",24,456242,"0.0-2.0-22.0","65553732575bb29198a888d7","655658abd643c3a98feb10cc",2,"18019","Hokkaido_large_pos_12_3.jpg",NA,NA,NA,NA,NA,NA,NA,NA,NA,NA,NA,NA,NA,NA,NA,NA,"[]","middle",1,"sch",12,16,1,2,1,2,1,1,"02910","32","female","woman","","caucasian","","No","",""
"17","5ffff3ac6fc9001772ea3312","svTrial","survey",25,469139,"0.0-2.0-23.0","65553732575bb29198a888d7","655658abd643c3a98feb10cc",2,"12873","Niigata_large_sch_4_2.jpg",NA,NA,NA,NA,NA,NA,NA,NA,NA,NA,NA,NA,NA,NA,NA,NA,"[]","small",2,"sch",4,17,2,2,2,3,2,1,"02910","32","female","woman","","caucasian","","No","",""
"18","5ffff3ac6fc9001772ea3312","svTrial","survey",26,480554,"0.0-2.0-24.0","65553732575bb29198a888d7","655658abd643c3a98feb10cc",2,"11391","Toyama_large_pos_3_0.jpg",NA,NA,NA,NA,NA,NA,NA,NA,NA,NA,NA,NA,NA,NA,NA,NA,"[]","middle",2,"pos",3,18,2,1,1,1,1,1,"02910","32","female","woman","","caucasian","","No","",""
"19","5ffff3ac6fc9001772ea3312","svTrial","survey",27,498857,"0.0-2.0-25.0","65553732575bb29198a888d7","655658abd643c3a98feb10cc",2,"18276","Hokkaido_small_sch_4_1.jpg",NA,NA,NA,NA,NA,NA,NA,NA,NA,NA,NA,NA,NA,NA,NA,NA,"[]","small",1,"pos",4,19,3,3,3,2,3,1,"02910","32","female","woman","","caucasian","","No","",""
"20","5ffff3ac6fc9001772ea3312","svTrial","survey",28,512807,"0.0-2.0-26.0","65553732575bb29198a888d7","655658abd643c3a98feb10cc",2,"13922","Kanagawa_large_sch_4_3.jpg",NA,NA,NA,NA,NA,NA,NA,NA,NA,NA,NA,NA,NA,NA,NA,NA,"[]","middle",1,"sch",4,20,3,2,2,1,2,1,"02910","32","female","woman","","caucasian","","No","",""
"21","5ffff3ac6fc9001772ea3312","svTrial","survey",29,526474,"0.0-2.0-27.0","65553732575bb29198a888d7","655658abd643c3a98feb10cc",2,"13641","Kanagawa_large_sch_6_1.jpg",NA,NA,NA,NA,NA,NA,NA,NA,NA,NA,NA,NA,NA,NA,NA,NA,"[]","middle",1,"pos",6,21,4,3,3,2,2,1,"02910","32","female","woman","","caucasian","","No","",""
"22","5ffff3ac6fc9001772ea3312","svTrial","survey",30,536506,"0.0-2.0-28.0","65553732575bb29198a888d7","655658abd643c3a98feb10cc",2,"10003","Akita_large_pos_6_1.jpg",NA,NA,NA,NA,NA,NA,NA,NA,NA,NA,NA,NA,NA,NA,NA,NA,"[]","large",2,"sch",6,22,1,1,1,1,1,1,"02910","32","female","woman","","caucasian","","No","",""
"23","5ffff3ac6fc9001772ea3312","svTrial","survey",31,550328,"0.0-2.0-29.0","65553732575bb29198a888d7","655658abd643c3a98feb10cc",2,"13798","Okinawa_middle_sch_2_3.jpg",NA,NA,NA,NA,NA,NA,NA,NA,NA,NA,NA,NA,NA,NA,NA,NA,"[]","small",1,"sch",2,23,3,3,2,4,3,1,"02910","32","female","woman","","caucasian","","No","",""
"24","5ffff3ac6fc9001772ea3312","svTrial","survey",32,571635,"0.0-2.0-30.0","65553732575bb29198a888d7","655658abd643c3a98feb10cc",2,"21284","Akita_middle_sch_2_0.jpg",NA,NA,NA,NA,NA,NA,NA,NA,NA,NA,NA,NA,NA,NA,NA,NA,"[]","middle",2,"sch",2,24,2,1,1,1,2,1,"02910","32","female","woman","","caucasian","","No","",""
"25","5ffff3ac6fc9001772ea3312","svTrial","survey",34,601789,"0.0-2.0-32.0","65553732575bb29198a888d7","655658abd643c3a98feb10cc",2,"14313","Toyama_middle_pos_5_0.jpg",NA,NA,NA,NA,NA,NA,NA,NA,NA,NA,NA,NA,NA,NA,NA,NA,"[]","large",2,"sch",5,25,4,3,2,4,2,1,"02910","32","female","woman","","caucasian","","No","",""
"26","5ffff3ac6fc9001772ea3312","svTrial","survey",35,621970,"0.0-2.0-33.0","65553732575bb29198a888d7","655658abd643c3a98feb10cc",2,"20157","Hokkaido_middle_sch_3_0.jpg",NA,NA,NA,NA,NA,NA,NA,NA,NA,NA,NA,NA,NA,NA,NA,NA,"[]","middle",1,"sch",3,26,4,3,2,3,2,1,"02910","32","female","woman","","caucasian","","No","",""
"27","5ffff3ac6fc9001772ea3312","svTrial","survey",36,633878,"0.0-2.0-34.0","65553732575bb29198a888d7","655658abd643c3a98feb10cc",2,"11884","Kanagawa_large_pos_5_0.jpg",NA,NA,NA,NA,NA,NA,NA,NA,NA,NA,NA,NA,NA,NA,NA,NA,"[]","small",1,"sch",5,27,5,5,3,5,4,1,"02910","32","female","woman","","caucasian","","No","",""
"28","5ffff3ac6fc9001772ea3312","svTrial","survey",37,655370,"0.0-2.0-35.0","65553732575bb29198a888d7","655658abd643c3a98feb10cc",2,"21465","Kanagawa_small_pos_3_1.jpg",NA,NA,NA,NA,NA,NA,NA,NA,NA,NA,NA,NA,NA,NA,NA,NA,"[]","large",1,"sch",3,28,4,3,3,4,3,1,"02910","32","female","woman","","caucasian","","No","",""
"29","5ffff3ac6fc9001772ea3312","svTrial","survey",38,697232,"0.0-2.0-36.0","65553732575bb29198a888d7","655658abd643c3a98feb10cc",2,"41839","Niigata_middle_sch_5_2.jpg",NA,NA,NA,NA,NA,NA,NA,NA,NA,NA,NA,NA,NA,NA,NA,NA,"[]","small",2,"pos",5,29,4,2,2,3,2,1,"02910","32","female","woman","","caucasian","","No","",""
"30","5ffff3ac6fc9001772ea3312","svTrial","survey",39,710592,"0.0-2.0-37.0","65553732575bb29198a888d7","655658abd643c3a98feb10cc",2,"13331","Okinawa_small_pos_2_1.jpg",NA,NA,NA,NA,NA,NA,NA,NA,NA,NA,NA,NA,NA,NA,NA,NA,"[]","large",1,"pos",2,30,3,1,2,2,1,1,"02910","32","female","woman","","caucasian","","No","",""
"31","5ffff3ac6fc9001772ea3312","svTrial","survey",40,737503,"0.0-2.0-38.0","65553732575bb29198a888d7","655658abd643c3a98feb10cc",2,"26878","Akita_middle_sch_7_1.jpg",NA,NA,NA,NA,NA,NA,NA,NA,NA,NA,NA,NA,NA,NA,NA,NA,"[]","large",2,"sch",7,31,1,1,1,1,1,1,"02910","32","female","woman","","caucasian","","No","",""
"32","5ffff3ac6fc9001772ea3312","svTrial","survey",41,758598,"0.0-2.0-39.0","65553732575bb29198a888d7","655658abd643c3a98feb10cc",2,"21067","Niigata_large_sch_8_0.jpg",NA,NA,NA,NA,NA,NA,NA,NA,NA,NA,NA,NA,NA,NA,NA,NA,"[]","middle",2,"sch",8,32,2,1,2,1,1,1,"02910","32","female","woman","","caucasian","","No","",""
"33","5ffff3ac6fc9001772ea3312","svTrial","survey",42,778374,"0.0-2.0-40.0","65553732575bb29198a888d7","655658abd643c3a98feb10cc",2,"19749","Akita_large_sch_3_2.jpg",NA,NA,NA,NA,NA,NA,NA,NA,NA,NA,NA,NA,NA,NA,NA,NA,"[]","small",2,"sch",3,33,4,4,3,5,3,1,"02910","32","female","woman","","caucasian","","No","",""
"34","5ffff3ac6fc9001772ea3312","svTrial","survey",43,799440,"0.0-2.0-41.0","65553732575bb29198a888d7","655658abd643c3a98feb10cc",2,"21037","Tokyo_small_sch_3_3.jpg",NA,NA,NA,NA,NA,NA,NA,NA,NA,NA,NA,NA,NA,NA,NA,NA,"[]","small",1,"sch",3,34,3,2,4,2,4,1,"02910","32","female","woman","","caucasian","","No","",""
"35","5ffff3ac6fc9001772ea3312","svTrial","survey",44,903579,"0.0-2.0-42.0","65553732575bb29198a888d7","655658abd643c3a98feb10cc",2,"104115","Okinawa_large_pos_4_0.jpg",NA,NA,NA,NA,NA,NA,NA,NA,NA,NA,NA,NA,NA,NA,NA,NA,"[]","large",1,"sch",4,35,2,3,2,2,2,1,"02910","32","female","woman","","caucasian","","No","",""
"36","5ffff3ac6fc9001772ea3312","svTrial","survey",45,1051543,"0.0-2.0-43.0","65553732575bb29198a888d7","655658abd643c3a98feb10cc",2,"147938","Niigata_middle_pos_8_1.jpg",NA,NA,NA,NA,NA,NA,NA,NA,NA,NA,NA,NA,NA,NA,NA,NA,"[]","middle",2,"pos",8,36,1,3,1,3,4,1,"02910","32","female","woman","","caucasian","","No","",""
"37","5ffff3ac6fc9001772ea3312","svTrial","survey",46,1109159,"0.0-2.0-44.0","65553732575bb29198a888d7","655658abd643c3a98feb10cc",2,"57589","Niigata_large_pos_8_2.jpg",NA,NA,NA,NA,NA,NA,NA,NA,NA,NA,NA,NA,NA,NA,NA,NA,"[]","middle",2,"pos",8,37,2,3,1,2,3,1,"02910","32","female","woman","","caucasian","","No","",""
"38","5ffff3ac6fc9001772ea3312","svTrial","survey",47,1212993,"0.0-2.0-45.0","65553732575bb29198a888d7","655658abd643c3a98feb10cc",2,"103808","Kanagawa_middle_sch_3_3.jpg",NA,NA,NA,NA,NA,NA,NA,NA,NA,NA,NA,NA,NA,NA,NA,NA,"[]","large",1,"sch",3,38,5,5,4,5,5,1,"02910","32","female","woman","","caucasian","","No","",""
"39","5ffff3ac6fc9001772ea3312","svTrial","survey",48,1234730,"0.0-2.0-46.0","65553732575bb29198a888d7","655658abd643c3a98feb10cc",2,"21711","Toyama_large_sch_5_0.jpg",NA,NA,NA,NA,NA,NA,NA,NA,NA,NA,NA,NA,NA,NA,NA,NA,"[]","large",2,"sch",5,39,2,4,2,2,2,1,"02910","32","female","woman","","caucasian","","No","",""
"40","5ffff3ac6fc9001772ea3312","svTrial","survey",49,1259497,"0.0-2.0-47.0","65553732575bb29198a888d7","655658abd643c3a98feb10cc",2,"24741","Toyama_small_sch_2_3.jpg",NA,NA,NA,NA,NA,NA,NA,NA,NA,NA,NA,NA,NA,NA,NA,NA,"[]","large",2,"pos",2,40,2,3,2,3,3,1,"02910","32","female","woman","","caucasian","","No","",""
"41","5ffff3ac6fc9001772ea3312","svTrial","survey",50,1273572,"0.0-2.0-48.0","65553732575bb29198a888d7","655658abd643c3a98feb10cc",2,"14048","Kanagawa_large_sch_7_2.jpg",NA,NA,NA,NA,NA,NA,NA,NA,NA,NA,NA,NA,NA,NA,NA,NA,"[]","middle",1,"pos",7,41,5,4,4,3,2,1,"02910","32","female","woman","","caucasian","","No","",""
"42","5ffff3ac6fc9001772ea3312","svTrial","survey",51,1298317,"0.0-2.0-49.0","65553732575bb29198a888d7","655658abd643c3a98feb10cc",2,"24705","Toyama_small_sch_4_3.jpg",NA,NA,NA,NA,NA,NA,NA,NA,NA,NA,NA,NA,NA,NA,NA,NA,"[]","middle",2,"sch",4,42,2,2,1,1,1,1,"02910","32","female","woman","","caucasian","","No","",""
"43","5ffff3ac6fc9001772ea3312","svTrial","survey",52,1315880,"0.0-2.0-50.0","65553732575bb29198a888d7","655658abd643c3a98feb10cc",2,"17535","Toyama_middle_pos_7_3.jpg",NA,NA,NA,NA,NA,NA,NA,NA,NA,NA,NA,NA,NA,NA,NA,NA,"[]","large",2,"sch",7,43,4,3,2,3,3,1,"02910","32","female","woman","","caucasian","","No","",""
"44","5ffff3ac6fc9001772ea3312","svTrial","survey",53,1375413,"0.0-2.0-51.0","65553732575bb29198a888d7","655658abd643c3a98feb10cc",2,"59507","Toyama_small_pos_4_2.jpg",NA,NA,NA,NA,NA,NA,NA,NA,NA,NA,NA,NA,NA,NA,NA,NA,"[]","small",2,"sch",4,44,3,4,3,4,3,1,"02910","32","female","woman","","caucasian","","No","",""
"45","5ffff3ac6fc9001772ea3312","svTrial","survey",54,1397832,"0.0-2.0-52.0","65553732575bb29198a888d7","655658abd643c3a98feb10cc",2,"22389","Okinawa_large_sch_1_0.jpg",NA,NA,NA,NA,NA,NA,NA,NA,NA,NA,NA,NA,NA,NA,NA,NA,"[]","middle",1,"pos",1,45,3,3,2,3,2,1,"02910","32","female","woman","","caucasian","","No","",""
"46","5ffff3ac6fc9001772ea3312","svTrial","survey",55,1418541,"0.0-2.0-53.0","65553732575bb29198a888d7","655658abd643c3a98feb10cc",2,"20685","Okinawa_large_sch_8_2.jpg",NA,NA,NA,NA,NA,NA,NA,NA,NA,NA,NA,NA,NA,NA,NA,NA,"[]","middle",1,"sch",8,46,4,3,4,2,2,1,"02910","32","female","woman","","caucasian","","No","",""
"47","5ffff3ac6fc9001772ea3312","svTrial","survey",56,1435818,"0.0-2.0-54.0","65553732575bb29198a888d7","655658abd643c3a98feb10cc",2,"17251","Okinawa_large_sch_3_2.jpg",NA,NA,NA,NA,NA,NA,NA,NA,NA,NA,NA,NA,NA,NA,NA,NA,"[]","large",1,"pos",3,47,2,3,2,2,1,1,"02910","32","female","woman","","caucasian","","No","",""
"48","5ffff3ac6fc9001772ea3312","svTrial","survey",57,1453518,"0.0-2.0-55.0","65553732575bb29198a888d7","655658abd643c3a98feb10cc",2,"17675","Tokyo_middle_sch_8_0.jpg",NA,NA,NA,NA,NA,NA,NA,NA,NA,NA,NA,NA,NA,NA,NA,NA,"[]","small",1,"sch",8,48,3,4,2,4,3,1,"02910","32","female","woman","","caucasian","","No","",""
