"","subject_id","task","trial_type","trial_index","time_elapsed","internal_node_id","study_id","session_id","group","rt","stimulus","width","height","webaudio","browser","browser_version","mobile","os","fullscreen","vsync_rate","webcam","microphone","success","timeout","failed_images","failed_audio","failed_video","accuracy","size","culture","loct","number","document.id","ambiguous","objects","invisible","chaos","complex","passedChecks","zipcode","age","sex","gender","gender-self-describe","ethnicity","ethnicity-self-describe","outsideUS","outsideUS_years","surveyComments"
"1","6020791e00b8c16be60521e5","svTrial","survey",8,307231,"0.0-2.0-6.0","65553732575bb29198a888d7","65565bc7886f77c84eeca9b4",3,"24336","Kanagawa_large_sch_11_1.jpg",NA,NA,NA,NA,NA,NA,NA,NA,NA,NA,NA,NA,NA,NA,NA,NA,"[]","large",1,"sch",11,1,3,3,3,2,3,1,"06032","22","male","man","","south-asian","","No","",""
"2","6020791e00b8c16be60521e5","svTrial","survey",9,325491,"0.0-2.0-7.0","65553732575bb29198a888d7","65565bc7886f77c84eeca9b4",3,"18234","Okinawa_large_pos_1_3.jpg",NA,NA,NA,NA,NA,NA,NA,NA,NA,NA,NA,NA,NA,NA,NA,NA,"[]","large",1,"sch",1,2,4,2,2,2,3,1,"06032","22","male","man","","south-asian","","No","",""
"3","6020791e00b8c16be60521e5","svTrial","survey",10,348592,"0.0-2.0-8.0","65553732575bb29198a888d7","65565bc7886f77c84eeca9b4",3,"23078","Tokyo_middle_pos_5_0.jpg",NA,NA,NA,NA,NA,NA,NA,NA,NA,NA,NA,NA,NA,NA,NA,NA,"[]","small",1,"sch",5,3,2,3,4,2,2,1,"06032","22","male","man","","south-asian","","No","",""
"4","6020791e00b8c16be60521e5","svTrial","survey",11,366253,"0.0-2.0-9.0","65553732575bb29198a888d7","65565bc7886f77c84eeca9b4",3,"17636","Hokkaido_middle_sch_6_2.jpg",NA,NA,NA,NA,NA,NA,NA,NA,NA,NA,NA,NA,NA,NA,NA,NA,"[]","small",1,"sch",6,4,1,5,1,1,4,1,"06032","22","male","man","","south-asian","","No","",""
"5","6020791e00b8c16be60521e5","svTrial","survey",12,382721,"0.0-2.0-10.0","65553732575bb29198a888d7","65565bc7886f77c84eeca9b4",3,"16446","Hokkaido_large_pos_4_3.jpg",NA,NA,NA,NA,NA,NA,NA,NA,NA,NA,NA,NA,NA,NA,NA,NA,"[]","middle",1,"sch",4,5,4,2,4,2,2,1,"06032","22","male","man","","south-asian","","No","",""
"6","6020791e00b8c16be60521e5","svTrial","survey",13,414867,"0.0-2.0-11.0","65553732575bb29198a888d7","65565bc7886f77c84eeca9b4",3,"32125","Toyama_small_sch_3_2.jpg",NA,NA,NA,NA,NA,NA,NA,NA,NA,NA,NA,NA,NA,NA,NA,NA,"[]","large",2,"pos",3,6,1,1,2,2,1,1,"06032","22","male","man","","south-asian","","No","",""
"7","6020791e00b8c16be60521e5","svTrial","survey",14,424794,"0.0-2.0-12.0","65553732575bb29198a888d7","65565bc7886f77c84eeca9b4",3,"9905","Hokkaido_middle_pos_1_0.jpg",NA,NA,NA,NA,NA,NA,NA,NA,NA,NA,NA,NA,NA,NA,NA,NA,"[]","small",1,"sch",1,7,5,4,4,3,4,1,"06032","22","male","man","","south-asian","","No","",""
"8","6020791e00b8c16be60521e5","svTrial","survey",15,437111,"0.0-2.0-13.0","65553732575bb29198a888d7","65565bc7886f77c84eeca9b4",3,"12298","Kanagawa_small_pos_1_1.jpg",NA,NA,NA,NA,NA,NA,NA,NA,NA,NA,NA,NA,NA,NA,NA,NA,"[]","middle",1,"sch",1,8,1,2,1,1,2,1,"06032","22","male","man","","south-asian","","No","",""
"9","6020791e00b8c16be60521e5","svTrial","survey",16,448224,"0.0-2.0-14.0","65553732575bb29198a888d7","65565bc7886f77c84eeca9b4",3,"11095","Niigata_middle_pos_1_1.jpg",NA,NA,NA,NA,NA,NA,NA,NA,NA,NA,NA,NA,NA,NA,NA,NA,"[]","middle",2,"pos",1,9,1,1,2,1,1,1,"06032","22","male","man","","south-asian","","No","",""
"10","6020791e00b8c16be60521e5","svTrial","survey",17,458650,"0.0-2.0-15.0","65553732575bb29198a888d7","65565bc7886f77c84eeca9b4",3,"10406","Ishikawa_large_pos_5_3.jpg",NA,NA,NA,NA,NA,NA,NA,NA,NA,NA,NA,NA,NA,NA,NA,NA,"[]","large",2,"pos",5,10,5,5,5,3,4,1,"06032","22","male","man","","south-asian","","No","",""
"11","6020791e00b8c16be60521e5","svTrial","survey",18,471454,"0.0-2.0-16.0","65553732575bb29198a888d7","65565bc7886f77c84eeca9b4",3,"12786","Ishikawa_large_sch_6_0.jpg",NA,NA,NA,NA,NA,NA,NA,NA,NA,NA,NA,NA,NA,NA,NA,NA,"[]","small",2,"sch",6,11,5,2,4,3,2,1,"06032","22","male","man","","south-asian","","No","",""
"12","6020791e00b8c16be60521e5","svTrial","survey",19,501520,"0.0-2.0-17.0","65553732575bb29198a888d7","65565bc7886f77c84eeca9b4",3,"30050","Niigata_large_pos_9_3.jpg",NA,NA,NA,NA,NA,NA,NA,NA,NA,NA,NA,NA,NA,NA,NA,NA,"[]","small",2,"sch",9,12,3,4,2,2,2,1,"06032","22","male","man","","south-asian","","No","",""
"13","6020791e00b8c16be60521e5","svTrial","survey",20,512721,"0.0-2.0-18.0","65553732575bb29198a888d7","65565bc7886f77c84eeca9b4",3,"11180","Okinawa_middle_pos_6_3.jpg",NA,NA,NA,NA,NA,NA,NA,NA,NA,NA,NA,NA,NA,NA,NA,NA,"[]","large",1,"pos",6,13,5,5,5,5,5,1,"06032","22","male","man","","south-asian","","No","",""
"14","6020791e00b8c16be60521e5","svTrial","survey",21,525639,"0.0-2.0-19.0","65553732575bb29198a888d7","65565bc7886f77c84eeca9b4",3,"12899","Toyama_large_pos_12_2.jpg",NA,NA,NA,NA,NA,NA,NA,NA,NA,NA,NA,NA,NA,NA,NA,NA,"[]","large",2,"sch",12,14,1,2,1,2,2,1,"06032","22","male","man","","south-asian","","No","",""
"15","6020791e00b8c16be60521e5","svTrial","survey",22,537485,"0.0-2.0-20.0","65553732575bb29198a888d7","65565bc7886f77c84eeca9b4",3,"11829","Tokyo_small_sch_4_1.jpg",NA,NA,NA,NA,NA,NA,NA,NA,NA,NA,NA,NA,NA,NA,NA,NA,"[]","large",1,"pos",4,15,4,4,4,4,4,1,"06032","22","male","man","","south-asian","","No","",""
"16","6020791e00b8c16be60521e5","svTrial","survey",23,548542,"0.0-2.0-21.0","65553732575bb29198a888d7","65565bc7886f77c84eeca9b4",3,"11040","Akita_large_sch_1_3.jpg",NA,NA,NA,NA,NA,NA,NA,NA,NA,NA,NA,NA,NA,NA,NA,NA,"[]","small",2,"pos",1,16,1,4,1,1,2,1,"06032","22","male","man","","south-asian","","No","",""
"17","6020791e00b8c16be60521e5","svTrial","survey",24,555848,"0.0-2.0-22.0","65553732575bb29198a888d7","65565bc7886f77c84eeca9b4",3,"7288","Kanagawa_large_pos_7_3.jpg",NA,NA,NA,NA,NA,NA,NA,NA,NA,NA,NA,NA,NA,NA,NA,NA,"[]","small",1,"pos",7,17,5,5,5,5,4,1,"06032","22","male","man","","south-asian","","No","",""
"18","6020791e00b8c16be60521e5","svTrial","survey",25,564120,"0.0-2.0-23.0","65553732575bb29198a888d7","65565bc7886f77c84eeca9b4",3,"8255","Kanagawa_large_pos_4_1.jpg",NA,NA,NA,NA,NA,NA,NA,NA,NA,NA,NA,NA,NA,NA,NA,NA,"[]","small",1,"pos",4,18,1,1,1,1,1,1,"06032","22","male","man","","south-asian","","No","",""
"19","6020791e00b8c16be60521e5","svTrial","survey",27,585551,"0.0-2.0-25.0","65553732575bb29198a888d7","65565bc7886f77c84eeca9b4",3,"11665","Akita_large_pos_9_2.jpg",NA,NA,NA,NA,NA,NA,NA,NA,NA,NA,NA,NA,NA,NA,NA,NA,"[]","small",2,"pos",9,19,5,5,3,3,4,1,"06032","22","male","man","","south-asian","","No","",""
"20","6020791e00b8c16be60521e5","svTrial","survey",28,596017,"0.0-2.0-26.0","65553732575bb29198a888d7","65565bc7886f77c84eeca9b4",3,"10449","Akita_middle_sch_6_2.jpg",NA,NA,NA,NA,NA,NA,NA,NA,NA,NA,NA,NA,NA,NA,NA,NA,"[]","small",2,"sch",6,20,1,1,1,1,2,1,"06032","22","male","man","","south-asian","","No","",""
"21","6020791e00b8c16be60521e5","svTrial","survey",29,605170,"0.0-2.0-27.0","65553732575bb29198a888d7","65565bc7886f77c84eeca9b4",3,"9137","Toyama_middle_pos_1_0.jpg",NA,NA,NA,NA,NA,NA,NA,NA,NA,NA,NA,NA,NA,NA,NA,NA,"[]","middle",2,"pos",1,21,3,2,3,2,3,1,"06032","22","male","man","","south-asian","","No","",""
"22","6020791e00b8c16be60521e5","svTrial","survey",30,615637,"0.0-2.0-28.0","65553732575bb29198a888d7","65565bc7886f77c84eeca9b4",3,"10453","Ishikawa_large_pos_6_1.jpg",NA,NA,NA,NA,NA,NA,NA,NA,NA,NA,NA,NA,NA,NA,NA,NA,"[]","middle",2,"pos",6,22,4,4,4,4,5,1,"06032","22","male","man","","south-asian","","No","",""
"23","6020791e00b8c16be60521e5","svTrial","survey",31,626253,"0.0-2.0-29.0","65553732575bb29198a888d7","65565bc7886f77c84eeca9b4",3,"10600","Ishikawa_large_pos_3_3.jpg",NA,NA,NA,NA,NA,NA,NA,NA,NA,NA,NA,NA,NA,NA,NA,NA,"[]","large",2,"pos",3,23,1,2,1,1,3,1,"06032","22","male","man","","south-asian","","No","",""
"24","6020791e00b8c16be60521e5","svTrial","survey",32,636644,"0.0-2.0-30.0","65553732575bb29198a888d7","65565bc7886f77c84eeca9b4",3,"10375","Akita_large_sch_10_0.jpg",NA,NA,NA,NA,NA,NA,NA,NA,NA,NA,NA,NA,NA,NA,NA,NA,"[]","small",2,"pos",10,24,4,4,4,2,3,1,"06032","22","male","man","","south-asian","","No","",""
"25","6020791e00b8c16be60521e5","svTrial","survey",34,661786,"0.0-2.0-32.0","65553732575bb29198a888d7","65565bc7886f77c84eeca9b4",3,"9360","Hokkaido_large_sch_3_3.jpg",NA,NA,NA,NA,NA,NA,NA,NA,NA,NA,NA,NA,NA,NA,NA,NA,"[]","small",1,"sch",3,25,1,1,1,1,1,1,"06032","22","male","man","","south-asian","","No","",""
"26","6020791e00b8c16be60521e5","svTrial","survey",35,672276,"0.0-2.0-33.0","65553732575bb29198a888d7","65565bc7886f77c84eeca9b4",3,"10471","Niigata_large_sch_3_1.jpg",NA,NA,NA,NA,NA,NA,NA,NA,NA,NA,NA,NA,NA,NA,NA,NA,"[]","large",2,"sch",3,26,4,5,2,4,4,1,"06032","22","male","man","","south-asian","","No","",""
"27","6020791e00b8c16be60521e5","svTrial","survey",36,684192,"0.0-2.0-34.0","65553732575bb29198a888d7","65565bc7886f77c84eeca9b4",3,"11899","Okinawa_middle_pos_4_2.jpg",NA,NA,NA,NA,NA,NA,NA,NA,NA,NA,NA,NA,NA,NA,NA,NA,"[]","small",1,"sch",4,27,4,4,4,1,1,1,"06032","22","male","man","","south-asian","","No","",""
"28","6020791e00b8c16be60521e5","svTrial","survey",37,694788,"0.0-2.0-35.0","65553732575bb29198a888d7","65565bc7886f77c84eeca9b4",3,"10581","Ishikawa_middle_pos_6_3.jpg",NA,NA,NA,NA,NA,NA,NA,NA,NA,NA,NA,NA,NA,NA,NA,NA,"[]","middle",2,"pos",6,28,3,3,3,3,2,1,"06032","22","male","man","","south-asian","","No","",""
"29","6020791e00b8c16be60521e5","svTrial","survey",38,707828,"0.0-2.0-36.0","65553732575bb29198a888d7","65565bc7886f77c84eeca9b4",3,"13019","Hokkaido_large_sch_11_3.jpg",NA,NA,NA,NA,NA,NA,NA,NA,NA,NA,NA,NA,NA,NA,NA,NA,"[]","large",1,"sch",11,29,2,3,2,3,2,1,"06032","22","male","man","","south-asian","","No","",""
"30","6020791e00b8c16be60521e5","svTrial","survey",39,720029,"0.0-2.0-37.0","65553732575bb29198a888d7","65565bc7886f77c84eeca9b4",3,"12184","Kanagawa_middle_sch_2_0.jpg",NA,NA,NA,NA,NA,NA,NA,NA,NA,NA,NA,NA,NA,NA,NA,NA,"[]","large",1,"sch",2,30,1,1,1,3,1,1,"06032","22","male","man","","south-asian","","No","",""
"31","6020791e00b8c16be60521e5","svTrial","survey",40,755107,"0.0-2.0-38.0","65553732575bb29198a888d7","65565bc7886f77c84eeca9b4",3,"35062","Niigata_large_pos_4_3.jpg",NA,NA,NA,NA,NA,NA,NA,NA,NA,NA,NA,NA,NA,NA,NA,NA,"[]","middle",2,"pos",4,31,4,4,3,4,3,1,"06032","22","male","man","","south-asian","","No","",""
"32","6020791e00b8c16be60521e5","svTrial","survey",41,761534,"0.0-2.0-39.0","65553732575bb29198a888d7","65565bc7886f77c84eeca9b4",3,"6412","Hokkaido_middle_sch_1_0.jpg",NA,NA,NA,NA,NA,NA,NA,NA,NA,NA,NA,NA,NA,NA,NA,NA,"[]","small",1,"sch",1,32,1,1,1,1,1,1,"06032","22","male","man","","south-asian","","No","",""
"33","6020791e00b8c16be60521e5","svTrial","survey",42,770037,"0.0-2.0-40.0","65553732575bb29198a888d7","65565bc7886f77c84eeca9b4",3,"8487","Ishikawa_large_pos_7_1.jpg",NA,NA,NA,NA,NA,NA,NA,NA,NA,NA,NA,NA,NA,NA,NA,NA,"[]","large",2,"sch",7,33,4,4,4,3,4,1,"06032","22","male","man","","south-asian","","No","",""
"34","6020791e00b8c16be60521e5","svTrial","survey",43,781392,"0.0-2.0-41.0","65553732575bb29198a888d7","65565bc7886f77c84eeca9b4",3,"11340","Okinawa_small_pos_3_0.jpg",NA,NA,NA,NA,NA,NA,NA,NA,NA,NA,NA,NA,NA,NA,NA,NA,"[]","large",1,"pos",3,34,3,4,4,4,1,1,"06032","22","male","man","","south-asian","","No","",""
"35","6020791e00b8c16be60521e5","svTrial","survey",44,787417,"0.0-2.0-42.0","65553732575bb29198a888d7","65565bc7886f77c84eeca9b4",3,"6011","Niigata_small_pos_1_1.jpg",NA,NA,NA,NA,NA,NA,NA,NA,NA,NA,NA,NA,NA,NA,NA,NA,"[]","small",2,"pos",1,35,1,1,1,1,1,1,"06032","22","male","man","","south-asian","","No","",""
"36","6020791e00b8c16be60521e5","svTrial","survey",45,799319,"0.0-2.0-43.0","65553732575bb29198a888d7","65565bc7886f77c84eeca9b4",3,"11887","Hokkaido_large_sch_4_0.jpg",NA,NA,NA,NA,NA,NA,NA,NA,NA,NA,NA,NA,NA,NA,NA,NA,"[]","small",1,"sch",4,36,2,3,3,4,2,1,"06032","22","male","man","","south-asian","","No","",""
"37","6020791e00b8c16be60521e5","svTrial","survey",46,812309,"0.0-2.0-44.0","65553732575bb29198a888d7","65565bc7886f77c84eeca9b4",3,"12974","Hokkaido_middle_sch_2_2.jpg",NA,NA,NA,NA,NA,NA,NA,NA,NA,NA,NA,NA,NA,NA,NA,NA,"[]","small",1,"pos",2,37,5,3,4,2,2,1,"06032","22","male","man","","south-asian","","No","",""
"38","6020791e00b8c16be60521e5","svTrial","survey",47,823048,"0.0-2.0-45.0","65553732575bb29198a888d7","65565bc7886f77c84eeca9b4",3,"10719","Akita_large_sch_7_1.jpg",NA,NA,NA,NA,NA,NA,NA,NA,NA,NA,NA,NA,NA,NA,NA,NA,"[]","large",2,"sch",7,38,2,3,2,2,1,1,"06032","22","male","man","","south-asian","","No","",""
"39","6020791e00b8c16be60521e5","svTrial","survey",48,833103,"0.0-2.0-46.0","65553732575bb29198a888d7","65565bc7886f77c84eeca9b4",3,"10036","Tokyo_small_sch_1_1.jpg",NA,NA,NA,NA,NA,NA,NA,NA,NA,NA,NA,NA,NA,NA,NA,NA,"[]","small",1,"sch",1,39,3,3,3,2,1,1,"06032","22","male","man","","south-asian","","No","",""
"40","6020791e00b8c16be60521e5","svTrial","survey",49,846383,"0.0-2.0-47.0","65553732575bb29198a888d7","65565bc7886f77c84eeca9b4",3,"13265","Toyama_large_pos_5_2.jpg",NA,NA,NA,NA,NA,NA,NA,NA,NA,NA,NA,NA,NA,NA,NA,NA,"[]","small",2,"pos",5,40,1,4,2,2,4,1,"06032","22","male","man","","south-asian","","No","",""
"41","6020791e00b8c16be60521e5","svTrial","survey",50,858831,"0.0-2.0-48.0","65553732575bb29198a888d7","65565bc7886f77c84eeca9b4",3,"12434","Niigata_middle_pos_7_1.jpg",NA,NA,NA,NA,NA,NA,NA,NA,NA,NA,NA,NA,NA,NA,NA,NA,"[]","large",2,"sch",7,41,1,2,1,2,2,1,"06032","22","male","man","","south-asian","","No","",""
"42","6020791e00b8c16be60521e5","svTrial","survey",51,873069,"0.0-2.0-49.0","65553732575bb29198a888d7","65565bc7886f77c84eeca9b4",3,"14225","Akita_small_sch_1_2.jpg",NA,NA,NA,NA,NA,NA,NA,NA,NA,NA,NA,NA,NA,NA,NA,NA,"[]","middle",2,"sch",1,42,4,4,4,2,4,1,"06032","22","male","man","","south-asian","","No","",""
"43","6020791e00b8c16be60521e5","svTrial","survey",52,883785,"0.0-2.0-50.0","65553732575bb29198a888d7","65565bc7886f77c84eeca9b4",3,"10701","Kanagawa_middle_pos_2_3.jpg",NA,NA,NA,NA,NA,NA,NA,NA,NA,NA,NA,NA,NA,NA,NA,NA,"[]","small",1,"pos",2,43,3,4,2,3,4,1,"06032","22","male","man","","south-asian","","No","",""
"44","6020791e00b8c16be60521e5","svTrial","survey",53,894108,"0.0-2.0-51.0","65553732575bb29198a888d7","65565bc7886f77c84eeca9b4",3,"10308","Okinawa_large_sch_2_0.jpg",NA,NA,NA,NA,NA,NA,NA,NA,NA,NA,NA,NA,NA,NA,NA,NA,"[]","small",1,"sch",2,44,4,5,4,5,4,1,"06032","22","male","man","","south-asian","","No","",""
"45","6020791e00b8c16be60521e5","svTrial","survey",54,906582,"0.0-2.0-52.0","65553732575bb29198a888d7","65565bc7886f77c84eeca9b4",3,"12457","Toyama_large_sch_4_2.jpg",NA,NA,NA,NA,NA,NA,NA,NA,NA,NA,NA,NA,NA,NA,NA,NA,"[]","small",2,"sch",4,45,3,2,3,2,3,1,"06032","22","male","man","","south-asian","","No","",""
"46","6020791e00b8c16be60521e5","svTrial","survey",55,920480,"0.0-2.0-53.0","65553732575bb29198a888d7","65565bc7886f77c84eeca9b4",3,"13879","Toyama_large_sch_8_3.jpg",NA,NA,NA,NA,NA,NA,NA,NA,NA,NA,NA,NA,NA,NA,NA,NA,"[]","small",2,"pos",8,46,3,3,4,2,3,1,"06032","22","male","man","","south-asian","","No","",""
"47","6020791e00b8c16be60521e5","svTrial","survey",56,931576,"0.0-2.0-54.0","65553732575bb29198a888d7","65565bc7886f77c84eeca9b4",3,"11078","Kanagawa_middle_pos_6_0.jpg",NA,NA,NA,NA,NA,NA,NA,NA,NA,NA,NA,NA,NA,NA,NA,NA,"[]","large",1,"sch",6,47,3,5,4,1,4,1,"06032","22","male","man","","south-asian","","No","",""
"48","6020791e00b8c16be60521e5","svTrial","survey",57,945646,"0.0-2.0-55.0","65553732575bb29198a888d7","65565bc7886f77c84eeca9b4",3,"14055","Kanagawa_middle_sch_1_2.jpg",NA,NA,NA,NA,NA,NA,NA,NA,NA,NA,NA,NA,NA,NA,NA,NA,"[]","small",1,"sch",1,48,3,3,5,2,4,1,"06032","22","male","man","","south-asian","","No","",""
