"","subject_id","task","trial_type","trial_index","time_elapsed","internal_node_id","study_id","session_id","group","rt","stimulus","width","height","webaudio","browser","browser_version","mobile","os","fullscreen","vsync_rate","webcam","microphone","success","timeout","failed_images","failed_audio","failed_video","accuracy","size","culture","loct","number","document.id","ambiguous","objects","invisible","chaos","complex","passedChecks","zipcode","age","sex","gender","gender-self-describe","ethnicity","ethnicity-self-describe","outsideUS","outsideUS_years","surveyComments"
"1","60bd527bae610e4ae0680d3a","svTrial","survey",8,148855,"0.0-2.0-6.0","65553732575bb29198a888d7","65565bdd9af666698105eaf4",8,"99817","Kanagawa_large_pos_11_3.jpg",NA,NA,NA,NA,NA,NA,NA,NA,NA,NA,NA,NA,NA,NA,NA,NA,"[]","large",1,"pos",11,1,1,1,1,3,1,1,"46231","28","female","woman","","caucasian","","No","",""
"2","60bd527bae610e4ae0680d3a","svTrial","survey",9,253848,"0.0-2.0-7.0","65553732575bb29198a888d7","65565bdd9af666698105eaf4",8,"104961","Hokkaido_large_sch_10_1.jpg",NA,NA,NA,NA,NA,NA,NA,NA,NA,NA,NA,NA,NA,NA,NA,NA,"[]","large",1,"pos",10,2,5,5,5,4,5,1,"46231","28","female","woman","","caucasian","","No","",""
"3","60bd527bae610e4ae0680d3a","svTrial","survey",10,276876,"0.0-2.0-8.0","65553732575bb29198a888d7","65565bdd9af666698105eaf4",8,"23004","Toyama_large_sch_6_2.jpg",NA,NA,NA,NA,NA,NA,NA,NA,NA,NA,NA,NA,NA,NA,NA,NA,"[]","middle",2,"sch",6,3,1,2,3,2,3,1,"46231","28","female","woman","","caucasian","","No","",""
"4","60bd527bae610e4ae0680d3a","svTrial","survey",11,294187,"0.0-2.0-9.0","65553732575bb29198a888d7","65565bdd9af666698105eaf4",8,"17289","Ishikawa_large_pos_9_2.jpg",NA,NA,NA,NA,NA,NA,NA,NA,NA,NA,NA,NA,NA,NA,NA,NA,"[]","large",2,"pos",9,4,5,5,5,3,4,1,"46231","28","female","woman","","caucasian","","No","",""
"5","60bd527bae610e4ae0680d3a","svTrial","survey",12,306155,"0.0-2.0-10.0","65553732575bb29198a888d7","65565bdd9af666698105eaf4",8,"11946","Okinawa_middle_pos_7_0.jpg",NA,NA,NA,NA,NA,NA,NA,NA,NA,NA,NA,NA,NA,NA,NA,NA,"[]","middle",1,"sch",7,5,5,5,5,5,5,1,"46231","28","female","woman","","caucasian","","No","",""
"6","60bd527bae610e4ae0680d3a","svTrial","survey",13,311738,"0.0-2.0-11.0","65553732575bb29198a888d7","65565bdd9af666698105eaf4",8,"5562","Toyama_middle_pos_6_1.jpg",NA,NA,NA,NA,NA,NA,NA,NA,NA,NA,NA,NA,NA,NA,NA,NA,"[]","small",2,"pos",6,6,1,1,1,1,1,1,"46231","28","female","woman","","caucasian","","No","",""
"7","60bd527bae610e4ae0680d3a","svTrial","survey",14,316875,"0.0-2.0-12.0","65553732575bb29198a888d7","65565bdd9af666698105eaf4",8,"5115","Okinawa_middle_pos_8_3.jpg",NA,NA,NA,NA,NA,NA,NA,NA,NA,NA,NA,NA,NA,NA,NA,NA,"[]","small",1,"pos",8,7,2,2,2,2,2,1,"46231","28","female","woman","","caucasian","","No","",""
"8","60bd527bae610e4ae0680d3a","svTrial","survey",15,322962,"0.0-2.0-13.0","65553732575bb29198a888d7","65565bdd9af666698105eaf4",8,"6069","Tokyo_large_sch_1_1.jpg",NA,NA,NA,NA,NA,NA,NA,NA,NA,NA,NA,NA,NA,NA,NA,NA,"[]","middle",1,"pos",1,8,5,5,5,3,5,1,"46231","28","female","woman","","caucasian","","No","",""
"9","60bd527bae610e4ae0680d3a","svTrial","survey",16,329507,"0.0-2.0-14.0","65553732575bb29198a888d7","65565bdd9af666698105eaf4",8,"6526","Ishikawa_large_sch_11_1.jpg",NA,NA,NA,NA,NA,NA,NA,NA,NA,NA,NA,NA,NA,NA,NA,NA,"[]","small",2,"pos",11,9,5,5,5,5,5,1,"46231","28","female","woman","","caucasian","","No","",""
"10","60bd527bae610e4ae0680d3a","svTrial","survey",17,337690,"0.0-2.0-15.0","65553732575bb29198a888d7","65565bdd9af666698105eaf4",8,"8163","Toyama_middle_pos_3_3.jpg",NA,NA,NA,NA,NA,NA,NA,NA,NA,NA,NA,NA,NA,NA,NA,NA,"[]","large",2,"pos",3,10,3,3,3,3,3,1,"46231","28","female","woman","","caucasian","","No","",""
"11","60bd527bae610e4ae0680d3a","svTrial","survey",18,345450,"0.0-2.0-16.0","65553732575bb29198a888d7","65565bdd9af666698105eaf4",8,"7742","Ishikawa_middle_pos_4_1.jpg",NA,NA,NA,NA,NA,NA,NA,NA,NA,NA,NA,NA,NA,NA,NA,NA,"[]","large",2,"sch",4,11,4,4,4,4,3,1,"46231","28","female","woman","","caucasian","","No","",""
"12","60bd527bae610e4ae0680d3a","svTrial","survey",19,349730,"0.0-2.0-17.0","65553732575bb29198a888d7","65565bdd9af666698105eaf4",8,"4261","Tokyo_large_sch_5_3.jpg",NA,NA,NA,NA,NA,NA,NA,NA,NA,NA,NA,NA,NA,NA,NA,NA,"[]","large",1,"sch",5,12,5,5,5,5,5,1,"46231","28","female","woman","","caucasian","","No","",""
"13","60bd527bae610e4ae0680d3a","svTrial","survey",20,354016,"0.0-2.0-18.0","65553732575bb29198a888d7","65565bdd9af666698105eaf4",8,"4270","Akita_middle_pos_2_0.jpg",NA,NA,NA,NA,NA,NA,NA,NA,NA,NA,NA,NA,NA,NA,NA,NA,"[]","large",2,"sch",2,13,5,5,5,5,5,1,"46231","28","female","woman","","caucasian","","No","",""
"14","60bd527bae610e4ae0680d3a","svTrial","survey",21,360353,"0.0-2.0-19.0","65553732575bb29198a888d7","65565bdd9af666698105eaf4",8,"6319","Hokkaido_large_pos_7_3.jpg",NA,NA,NA,NA,NA,NA,NA,NA,NA,NA,NA,NA,NA,NA,NA,NA,"[]","middle",1,"sch",7,14,5,5,5,5,5,1,"46231","28","female","woman","","caucasian","","No","",""
"15","60bd527bae610e4ae0680d3a","svTrial","survey",22,364793,"0.0-2.0-20.0","65553732575bb29198a888d7","65565bdd9af666698105eaf4",8,"4423","Ishikawa_large_pos_12_1.jpg",NA,NA,NA,NA,NA,NA,NA,NA,NA,NA,NA,NA,NA,NA,NA,NA,"[]","small",2,"sch",12,15,3,3,3,3,3,1,"46231","28","female","woman","","caucasian","","No","",""
"16","60bd527bae610e4ae0680d3a","svTrial","survey",23,369793,"0.0-2.0-21.0","65553732575bb29198a888d7","65565bdd9af666698105eaf4",8,"4982","Kanagawa_middle_sch_7_1.jpg",NA,NA,NA,NA,NA,NA,NA,NA,NA,NA,NA,NA,NA,NA,NA,NA,"[]","large",1,"pos",7,16,4,4,4,4,4,1,"46231","28","female","woman","","caucasian","","No","",""
"17","60bd527bae610e4ae0680d3a","svTrial","survey",24,374770,"0.0-2.0-22.0","65553732575bb29198a888d7","65565bdd9af666698105eaf4",8,"4959","Tokyo_middle_pos_1_3.jpg",NA,NA,NA,NA,NA,NA,NA,NA,NA,NA,NA,NA,NA,NA,NA,NA,"[]","large",1,"sch",1,17,5,5,5,5,5,1,"46231","28","female","woman","","caucasian","","No","",""
"18","60bd527bae610e4ae0680d3a","svTrial","survey",25,390841,"0.0-2.0-23.0","65553732575bb29198a888d7","65565bdd9af666698105eaf4",8,"16054","Niigata_middle_pos_2_3.jpg",NA,NA,NA,NA,NA,NA,NA,NA,NA,NA,NA,NA,NA,NA,NA,NA,"[]","large",2,"pos",2,18,5,5,5,4,4,1,"46231","28","female","woman","","caucasian","","No","",""
"19","60bd527bae610e4ae0680d3a","svTrial","survey",26,395570,"0.0-2.0-24.0","65553732575bb29198a888d7","65565bdd9af666698105eaf4",8,"4711","Tokyo_large_pos_8_0.jpg",NA,NA,NA,NA,NA,NA,NA,NA,NA,NA,NA,NA,NA,NA,NA,NA,"[]","small",1,"sch",8,19,5,5,5,5,5,1,"46231","28","female","woman","","caucasian","","No","",""
"20","60bd527bae610e4ae0680d3a","svTrial","survey",27,402978,"0.0-2.0-25.0","65553732575bb29198a888d7","65565bdd9af666698105eaf4",8,"7391","Tokyo_small_sch_2_1.jpg",NA,NA,NA,NA,NA,NA,NA,NA,NA,NA,NA,NA,NA,NA,NA,NA,"[]","small",1,"pos",2,20,3,3,3,3,3,1,"46231","28","female","woman","","caucasian","","No","",""
"21","60bd527bae610e4ae0680d3a","svTrial","survey",28,407730,"0.0-2.0-26.0","65553732575bb29198a888d7","65565bdd9af666698105eaf4",8,"4734","Niigata_middle_sch_6_2.jpg",NA,NA,NA,NA,NA,NA,NA,NA,NA,NA,NA,NA,NA,NA,NA,NA,"[]","large",2,"sch",6,21,1,1,1,1,1,1,"46231","28","female","woman","","caucasian","","No","",""
"22","60bd527bae610e4ae0680d3a","svTrial","survey",29,411912,"0.0-2.0-27.0","65553732575bb29198a888d7","65565bdd9af666698105eaf4",8,"4166","Okinawa_large_pos_11_1.jpg",NA,NA,NA,NA,NA,NA,NA,NA,NA,NA,NA,NA,NA,NA,NA,NA,"[]","large",1,"pos",11,22,4,4,4,4,4,1,"46231","28","female","woman","","caucasian","","No","",""
"23","60bd527bae610e4ae0680d3a","svTrial","survey",30,417673,"0.0-2.0-28.0","65553732575bb29198a888d7","65565bdd9af666698105eaf4",8,"5744","Kanagawa_large_pos_6_2.jpg",NA,NA,NA,NA,NA,NA,NA,NA,NA,NA,NA,NA,NA,NA,NA,NA,"[]","small",1,"sch",6,23,2,2,2,2,2,1,"46231","28","female","woman","","caucasian","","No","",""
"24","60bd527bae610e4ae0680d3a","svTrial","survey",31,422305,"0.0-2.0-29.0","65553732575bb29198a888d7","65565bdd9af666698105eaf4",8,"4615","Tokyo_large_pos_9_0.jpg",NA,NA,NA,NA,NA,NA,NA,NA,NA,NA,NA,NA,NA,NA,NA,NA,"[]","large",1,"pos",9,24,4,4,4,4,4,1,"46231","28","female","woman","","caucasian","","No","",""
"25","60bd527bae610e4ae0680d3a","svTrial","survey",33,432721,"0.0-2.0-31.0","65553732575bb29198a888d7","65565bdd9af666698105eaf4",8,"5385","Toyama_middle_sch_4_0.jpg",NA,NA,NA,NA,NA,NA,NA,NA,NA,NA,NA,NA,NA,NA,NA,NA,"[]","middle",2,"sch",4,25,1,1,1,1,1,1,"46231","28","female","woman","","caucasian","","No","",""
"26","60bd527bae610e4ae0680d3a","svTrial","survey",34,438649,"0.0-2.0-32.0","65553732575bb29198a888d7","65565bdd9af666698105eaf4",8,"5910","Okinawa_small_sch_2_1.jpg",NA,NA,NA,NA,NA,NA,NA,NA,NA,NA,NA,NA,NA,NA,NA,NA,"[]","middle",1,"sch",2,26,1,1,1,1,1,1,"46231","28","female","woman","","caucasian","","No","",""
"27","60bd527bae610e4ae0680d3a","svTrial","survey",35,444288,"0.0-2.0-33.0","65553732575bb29198a888d7","65565bdd9af666698105eaf4",8,"5623","Kanagawa_large_sch_10_0.jpg",NA,NA,NA,NA,NA,NA,NA,NA,NA,NA,NA,NA,NA,NA,NA,NA,"[]","large",1,"pos",10,27,2,2,2,2,2,1,"46231","28","female","woman","","caucasian","","No","",""
"28","60bd527bae610e4ae0680d3a","svTrial","survey",37,455513,"0.0-2.0-35.0","65553732575bb29198a888d7","65565bdd9af666698105eaf4",8,"5951","Toyama_small_pos_1_1.jpg",NA,NA,NA,NA,NA,NA,NA,NA,NA,NA,NA,NA,NA,NA,NA,NA,"[]","small",2,"pos",1,28,1,1,1,1,1,1,"46231","28","female","woman","","caucasian","","No","",""
"29","60bd527bae610e4ae0680d3a","svTrial","survey",38,460409,"0.0-2.0-36.0","65553732575bb29198a888d7","65565bdd9af666698105eaf4",8,"4880","Akita_middle_pos_3_1.jpg",NA,NA,NA,NA,NA,NA,NA,NA,NA,NA,NA,NA,NA,NA,NA,NA,"[]","middle",2,"pos",3,29,2,2,2,2,2,1,"46231","28","female","woman","","caucasian","","No","",""
"30","60bd527bae610e4ae0680d3a","svTrial","survey",39,465627,"0.0-2.0-37.0","65553732575bb29198a888d7","65565bdd9af666698105eaf4",8,"5201","Kanagawa_small_pos_4_1.jpg",NA,NA,NA,NA,NA,NA,NA,NA,NA,NA,NA,NA,NA,NA,NA,NA,"[]","middle",1,"pos",4,30,3,3,3,2,2,1,"46231","28","female","woman","","caucasian","","No","",""
"31","60bd527bae610e4ae0680d3a","svTrial","survey",40,470321,"0.0-2.0-38.0","65553732575bb29198a888d7","65565bdd9af666698105eaf4",8,"4676","Toyama_large_sch_2_2.jpg",NA,NA,NA,NA,NA,NA,NA,NA,NA,NA,NA,NA,NA,NA,NA,NA,"[]","large",2,"pos",2,31,3,3,3,3,3,1,"46231","28","female","woman","","caucasian","","No","",""
"32","60bd527bae610e4ae0680d3a","svTrial","survey",41,497777,"0.0-2.0-39.0","65553732575bb29198a888d7","65565bdd9af666698105eaf4",8,"27440","Okinawa_large_sch_10_0.jpg",NA,NA,NA,NA,NA,NA,NA,NA,NA,NA,NA,NA,NA,NA,NA,NA,"[]","large",1,"sch",10,32,4,4,4,4,4,1,"46231","28","female","woman","","caucasian","","No","",""
"33","60bd527bae610e4ae0680d3a","svTrial","survey",42,503577,"0.0-2.0-40.0","65553732575bb29198a888d7","65565bdd9af666698105eaf4",8,"5783","Akita_small_sch_2_2.jpg",NA,NA,NA,NA,NA,NA,NA,NA,NA,NA,NA,NA,NA,NA,NA,NA,"[]","small",2,"pos",2,33,3,3,3,3,3,1,"46231","28","female","woman","","caucasian","","No","",""
"34","60bd527bae610e4ae0680d3a","svTrial","survey",43,508314,"0.0-2.0-41.0","65553732575bb29198a888d7","65565bdd9af666698105eaf4",8,"4719","Akita_middle_pos_7_0.jpg",NA,NA,NA,NA,NA,NA,NA,NA,NA,NA,NA,NA,NA,NA,NA,NA,"[]","middle",2,"pos",7,34,2,2,2,2,2,1,"46231","28","female","woman","","caucasian","","No","",""
"35","60bd527bae610e4ae0680d3a","svTrial","survey",44,513360,"0.0-2.0-42.0","65553732575bb29198a888d7","65565bdd9af666698105eaf4",8,"5027","Niigata_small_sch_3_2.jpg",NA,NA,NA,NA,NA,NA,NA,NA,NA,NA,NA,NA,NA,NA,NA,NA,"[]","middle",2,"sch",3,35,2,2,2,2,2,1,"46231","28","female","woman","","caucasian","","No","",""
"36","60bd527bae610e4ae0680d3a","svTrial","survey",45,517256,"0.0-2.0-43.0","65553732575bb29198a888d7","65565bdd9af666698105eaf4",8,"3878","Toyama_large_pos_2_1.jpg",NA,NA,NA,NA,NA,NA,NA,NA,NA,NA,NA,NA,NA,NA,NA,NA,"[]","large",2,"sch",2,36,4,4,4,4,4,1,"46231","28","female","woman","","caucasian","","No","",""
"37","60bd527bae610e4ae0680d3a","svTrial","survey",46,521769,"0.0-2.0-44.0","65553732575bb29198a888d7","65565bdd9af666698105eaf4",8,"4497","Toyama_middle_sch_6_0.jpg",NA,NA,NA,NA,NA,NA,NA,NA,NA,NA,NA,NA,NA,NA,NA,NA,"[]","large",2,"pos",6,37,4,4,4,4,4,1,"46231","28","female","woman","","caucasian","","No","",""
"38","60bd527bae610e4ae0680d3a","svTrial","survey",47,526561,"0.0-2.0-45.0","65553732575bb29198a888d7","65565bdd9af666698105eaf4",8,"4775","Ishikawa_middle_pos_8_2.jpg",NA,NA,NA,NA,NA,NA,NA,NA,NA,NA,NA,NA,NA,NA,NA,NA,"[]","small",2,"sch",8,38,3,3,3,3,3,1,"46231","28","female","woman","","caucasian","","No","",""
"39","60bd527bae610e4ae0680d3a","svTrial","survey",48,533472,"0.0-2.0-46.0","65553732575bb29198a888d7","65565bdd9af666698105eaf4",8,"6890","Kanagawa_large_pos_2_3.jpg",NA,NA,NA,NA,NA,NA,NA,NA,NA,NA,NA,NA,NA,NA,NA,NA,"[]","small",1,"pos",2,39,5,5,5,5,5,1,"46231","28","female","woman","","caucasian","","No","",""
"40","60bd527bae610e4ae0680d3a","svTrial","survey",49,544849,"0.0-2.0-47.0","65553732575bb29198a888d7","65565bdd9af666698105eaf4",8,"11360","Hokkaido_large_pos_2_0.jpg",NA,NA,NA,NA,NA,NA,NA,NA,NA,NA,NA,NA,NA,NA,NA,NA,"[]","small",1,"sch",2,40,5,1,5,1,1,1,"46231","28","female","woman","","caucasian","","No","",""
"41","60bd527bae610e4ae0680d3a","svTrial","survey",50,551805,"0.0-2.0-48.0","65553732575bb29198a888d7","65565bdd9af666698105eaf4",8,"6940","Niigata_large_pos_2_3.jpg",NA,NA,NA,NA,NA,NA,NA,NA,NA,NA,NA,NA,NA,NA,NA,NA,"[]","middle",2,"pos",2,41,NA,NA,NA,NA,NA,1,"46231","28","female","woman","","caucasian","","No","",""
"42","60bd527bae610e4ae0680d3a","svTrial","survey",51,558073,"0.0-2.0-49.0","65553732575bb29198a888d7","65565bdd9af666698105eaf4",8,"6251","Okinawa_small_pos_1_0.jpg",NA,NA,NA,NA,NA,NA,NA,NA,NA,NA,NA,NA,NA,NA,NA,NA,"[]","large",1,"sch",1,42,4,4,4,4,4,1,"46231","28","female","woman","","caucasian","","No","",""
"43","60bd527bae610e4ae0680d3a","svTrial","survey",52,562440,"0.0-2.0-50.0","65553732575bb29198a888d7","65565bdd9af666698105eaf4",8,"4351","Tokyo_middle_pos_2_1.jpg",NA,NA,NA,NA,NA,NA,NA,NA,NA,NA,NA,NA,NA,NA,NA,NA,"[]","large",1,"pos",2,43,1,1,1,1,1,1,"46231","28","female","woman","","caucasian","","No","",""
"44","60bd527bae610e4ae0680d3a","svTrial","survey",53,566505,"0.0-2.0-51.0","65553732575bb29198a888d7","65565bdd9af666698105eaf4",8,"4048","Akita_large_pos_4_2.jpg",NA,NA,NA,NA,NA,NA,NA,NA,NA,NA,NA,NA,NA,NA,NA,NA,"[]","middle",2,"pos",4,44,3,3,3,3,3,1,"46231","28","female","woman","","caucasian","","No","",""
"45","60bd527bae610e4ae0680d3a","svTrial","survey",54,572288,"0.0-2.0-52.0","65553732575bb29198a888d7","65565bdd9af666698105eaf4",8,"5767","Niigata_middle_pos_4_3.jpg",NA,NA,NA,NA,NA,NA,NA,NA,NA,NA,NA,NA,NA,NA,NA,NA,"[]","small",2,"pos",4,45,5,5,5,5,5,1,"46231","28","female","woman","","caucasian","","No","",""
"46","60bd527bae610e4ae0680d3a","svTrial","survey",55,576168,"0.0-2.0-53.0","65553732575bb29198a888d7","65565bdd9af666698105eaf4",8,"3864","Hokkaido_middle_pos_7_2.jpg",NA,NA,NA,NA,NA,NA,NA,NA,NA,NA,NA,NA,NA,NA,NA,NA,"[]","small",1,"sch",7,46,1,1,1,1,1,1,"46231","28","female","woman","","caucasian","","No","",""
"47","60bd527bae610e4ae0680d3a","svTrial","survey",56,583481,"0.0-2.0-54.0","65553732575bb29198a888d7","65565bdd9af666698105eaf4",8,"7296","Ishikawa_small_sch_2_0.jpg",NA,NA,NA,NA,NA,NA,NA,NA,NA,NA,NA,NA,NA,NA,NA,NA,"[]","large",2,"sch",2,47,5,1,5,1,1,1,"46231","28","female","woman","","caucasian","","No","",""
"48","60bd527bae610e4ae0680d3a","svTrial","survey",57,587942,"0.0-2.0-55.0","65553732575bb29198a888d7","65565bdd9af666698105eaf4",8,"4445","Okinawa_middle_sch_5_3.jpg",NA,NA,NA,NA,NA,NA,NA,NA,NA,NA,NA,NA,NA,NA,NA,NA,"[]","small",1,"sch",5,48,3,3,3,3,3,1,"46231","28","female","woman","","caucasian","","No","",""
