"","subject_id","task","trial_type","trial_index","time_elapsed","internal_node_id","study_id","session_id","group","rt","stimulus","width","height","webaudio","browser","browser_version","mobile","os","fullscreen","vsync_rate","webcam","microphone","success","timeout","failed_images","failed_audio","failed_video","accuracy","size","culture","loct","number","document.id","ambiguous","objects","invisible","chaos","complex","passedChecks","zipcode","age","sex","gender","gender-self-describe","ethnicity","ethnicity-self-describe","outsideUS","outsideUS_years","surveyComments"
"1","60ed709632fe290990f0ca64","svTrial","survey",8,57716,"0.0-2.0-6.0","65553732575bb29198a888d7","65565bdffa1f42364f6b649f",6,"29720","Hokkaido_large_pos_9_1.jpg",NA,NA,NA,NA,NA,NA,NA,NA,NA,NA,NA,NA,NA,NA,NA,NA,"[]","small",1,"sch",9,1,4,3,2,2,2,1,"84721","24","male","man","","caucasian","","No","",""
"2","60ed709632fe290990f0ca64","svTrial","survey",9,78785,"0.0-2.0-7.0","65553732575bb29198a888d7","65565bdffa1f42364f6b649f",6,"21062","Akita_middle_sch_8_1.jpg",NA,NA,NA,NA,NA,NA,NA,NA,NA,NA,NA,NA,NA,NA,NA,NA,"[]","large",2,"sch",8,2,3,1,3,2,1,1,"84721","24","male","man","","caucasian","","No","",""
"3","60ed709632fe290990f0ca64","svTrial","survey",10,95988,"0.0-2.0-8.0","65553732575bb29198a888d7","65565bdffa1f42364f6b649f",6,"17191","Ishikawa_large_sch_3_1.jpg",NA,NA,NA,NA,NA,NA,NA,NA,NA,NA,NA,NA,NA,NA,NA,NA,"[]","middle",2,"pos",3,3,2,2,3,2,1,1,"84721","24","male","man","","caucasian","","No","",""
"4","60ed709632fe290990f0ca64","svTrial","survey",11,1359726,"0.0-2.0-9.0","65553732575bb29198a888d7","65565bdffa1f42364f6b649f",6,"1263733","Niigata_large_sch_7_3.jpg",NA,NA,NA,NA,NA,NA,NA,NA,NA,NA,NA,NA,NA,NA,NA,NA,"[]","small",2,"pos",7,4,4,3,4,2,2,1,"84721","24","male","man","","caucasian","","No","",""
"5","60ed709632fe290990f0ca64","svTrial","survey",12,1370877,"0.0-2.0-10.0","65553732575bb29198a888d7","65565bdffa1f42364f6b649f",6,"11140","Hokkaido_middle_sch_4_2.jpg",NA,NA,NA,NA,NA,NA,NA,NA,NA,NA,NA,NA,NA,NA,NA,NA,"[]","middle",1,"sch",4,5,4,2,2,2,2,1,"84721","24","male","man","","caucasian","","No","",""
"6","60ed709632fe290990f0ca64","svTrial","survey",13,1381543,"0.0-2.0-11.0","65553732575bb29198a888d7","65565bdffa1f42364f6b649f",6,"10656","Kanagawa_middle_pos_1_2.jpg",NA,NA,NA,NA,NA,NA,NA,NA,NA,NA,NA,NA,NA,NA,NA,NA,"[]","small",1,"pos",1,6,3,4,2,2,2,1,"84721","24","male","man","","caucasian","","No","",""
"7","60ed709632fe290990f0ca64","svTrial","survey",14,1392390,"0.0-2.0-12.0","65553732575bb29198a888d7","65565bdffa1f42364f6b649f",6,"10837","Okinawa_middle_sch_4_3.jpg",NA,NA,NA,NA,NA,NA,NA,NA,NA,NA,NA,NA,NA,NA,NA,NA,"[]","small",1,"pos",4,7,3,3,3,3,3,1,"84721","24","male","man","","caucasian","","No","",""
"8","60ed709632fe290990f0ca64","svTrial","survey",15,1400058,"0.0-2.0-13.0","65553732575bb29198a888d7","65565bdffa1f42364f6b649f",6,"7658","Okinawa_large_sch_5_0.jpg",NA,NA,NA,NA,NA,NA,NA,NA,NA,NA,NA,NA,NA,NA,NA,NA,"[]","small",1,"pos",5,8,2,4,2,2,4,1,"84721","24","male","man","","caucasian","","No","",""
"9","60ed709632fe290990f0ca64","svTrial","survey",16,1406681,"0.0-2.0-14.0","65553732575bb29198a888d7","65565bdffa1f42364f6b649f",6,"6614","Hokkaido_large_sch_8_0.jpg",NA,NA,NA,NA,NA,NA,NA,NA,NA,NA,NA,NA,NA,NA,NA,NA,"[]","large",1,"pos",8,9,1,3,2,2,3,1,"84721","24","male","man","","caucasian","","No","",""
"10","60ed709632fe290990f0ca64","svTrial","survey",17,1412514,"0.0-2.0-15.0","65553732575bb29198a888d7","65565bdffa1f42364f6b649f",6,"5824","Niigata_large_pos_12_3.jpg",NA,NA,NA,NA,NA,NA,NA,NA,NA,NA,NA,NA,NA,NA,NA,NA,"[]","large",2,"pos",12,10,4,1,1,1,2,1,"84721","24","male","man","","caucasian","","No","",""
"11","60ed709632fe290990f0ca64","svTrial","survey",18,1421525,"0.0-2.0-16.0","65553732575bb29198a888d7","65565bdffa1f42364f6b649f",6,"9001","Akita_large_sch_12_2.jpg",NA,NA,NA,NA,NA,NA,NA,NA,NA,NA,NA,NA,NA,NA,NA,NA,"[]","small",2,"pos",12,11,3,1,3,2,2,1,"84721","24","male","man","","caucasian","","No","",""
"12","60ed709632fe290990f0ca64","svTrial","survey",19,1428032,"0.0-2.0-17.0","65553732575bb29198a888d7","65565bdffa1f42364f6b649f",6,"6498","Toyama_large_sch_10_2.jpg",NA,NA,NA,NA,NA,NA,NA,NA,NA,NA,NA,NA,NA,NA,NA,NA,"[]","large",2,"pos",10,12,2,4,2,3,2,1,"84721","24","male","man","","caucasian","","No","",""
"13","60ed709632fe290990f0ca64","svTrial","survey",20,1432871,"0.0-2.0-18.0","65553732575bb29198a888d7","65565bdffa1f42364f6b649f",6,"4830","Okinawa_large_sch_12_1.jpg",NA,NA,NA,NA,NA,NA,NA,NA,NA,NA,NA,NA,NA,NA,NA,NA,"[]","large",1,"pos",12,13,3,2,2,2,3,1,"84721","24","male","man","","caucasian","","No","",""
"14","60ed709632fe290990f0ca64","svTrial","survey",21,1440973,"0.0-2.0-19.0","65553732575bb29198a888d7","65565bdffa1f42364f6b649f",6,"8093","Akita_large_pos_7_3.jpg",NA,NA,NA,NA,NA,NA,NA,NA,NA,NA,NA,NA,NA,NA,NA,NA,"[]","large",2,"sch",7,14,3,2,3,3,3,1,"84721","24","male","man","","caucasian","","No","",""
"15","60ed709632fe290990f0ca64","svTrial","survey",22,1448063,"0.0-2.0-20.0","65553732575bb29198a888d7","65565bdffa1f42364f6b649f",6,"7082","Okinawa_large_pos_3_1.jpg",NA,NA,NA,NA,NA,NA,NA,NA,NA,NA,NA,NA,NA,NA,NA,NA,"[]","large",1,"sch",3,15,1,1,3,3,2,1,"84721","24","male","man","","caucasian","","No","",""
"16","60ed709632fe290990f0ca64","svTrial","survey",23,1470758,"0.0-2.0-21.0","65553732575bb29198a888d7","65565bdffa1f42364f6b649f",6,"22685","Akita_large_pos_5_0.jpg",NA,NA,NA,NA,NA,NA,NA,NA,NA,NA,NA,NA,NA,NA,NA,NA,"[]","large",2,"pos",5,16,5,1,4,3,3,1,"84721","24","male","man","","caucasian","","No","",""
"17","60ed709632fe290990f0ca64","svTrial","survey",24,1476390,"0.0-2.0-22.0","65553732575bb29198a888d7","65565bdffa1f42364f6b649f",6,"5623","Akita_large_pos_10_3.jpg",NA,NA,NA,NA,NA,NA,NA,NA,NA,NA,NA,NA,NA,NA,NA,NA,"[]","middle",2,"pos",10,17,1,4,2,2,4,1,"84721","24","male","man","","caucasian","","No","",""
"18","60ed709632fe290990f0ca64","svTrial","survey",25,1484690,"0.0-2.0-23.0","65553732575bb29198a888d7","65565bdffa1f42364f6b649f",6,"8291","Okinawa_small_sch_4_3.jpg",NA,NA,NA,NA,NA,NA,NA,NA,NA,NA,NA,NA,NA,NA,NA,NA,"[]","large",1,"sch",4,18,5,1,3,2,1,1,"84721","24","male","man","","caucasian","","No","",""
"19","60ed709632fe290990f0ca64","svTrial","survey",26,1491300,"0.0-2.0-24.0","65553732575bb29198a888d7","65565bdffa1f42364f6b649f",6,"6602","Hokkaido_large_sch_5_3.jpg",NA,NA,NA,NA,NA,NA,NA,NA,NA,NA,NA,NA,NA,NA,NA,NA,"[]","middle",1,"pos",5,19,2,3,4,2,2,1,"84721","24","male","man","","caucasian","","No","",""
"20","60ed709632fe290990f0ca64","svTrial","survey",27,1500298,"0.0-2.0-25.0","65553732575bb29198a888d7","65565bdffa1f42364f6b649f",6,"8988","Hokkaido_middle_pos_3_1.jpg",NA,NA,NA,NA,NA,NA,NA,NA,NA,NA,NA,NA,NA,NA,NA,NA,"[]","middle",1,"pos",3,20,1,5,1,4,4,1,"84721","24","male","man","","caucasian","","No","",""
"21","60ed709632fe290990f0ca64","svTrial","survey",28,1507072,"0.0-2.0-26.0","65553732575bb29198a888d7","65565bdffa1f42364f6b649f",6,"6764","Tokyo_large_sch_2_0.jpg",NA,NA,NA,NA,NA,NA,NA,NA,NA,NA,NA,NA,NA,NA,NA,NA,"[]","large",1,"pos",2,21,2,2,4,3,2,1,"84721","24","male","man","","caucasian","","No","",""
"22","60ed709632fe290990f0ca64","svTrial","survey",29,1513096,"0.0-2.0-27.0","65553732575bb29198a888d7","65565bdffa1f42364f6b649f",6,"6014","Toyama_middle_sch_8_0.jpg",NA,NA,NA,NA,NA,NA,NA,NA,NA,NA,NA,NA,NA,NA,NA,NA,"[]","middle",2,"pos",8,22,1,2,3,3,3,1,"84721","24","male","man","","caucasian","","No","",""
"23","60ed709632fe290990f0ca64","svTrial","survey",30,1521422,"0.0-2.0-28.0","65553732575bb29198a888d7","65565bdffa1f42364f6b649f",6,"8317","Toyama_large_pos_11_0.jpg",NA,NA,NA,NA,NA,NA,NA,NA,NA,NA,NA,NA,NA,NA,NA,NA,"[]","small",2,"sch",11,23,5,3,2,2,2,1,"84721","24","male","man","","caucasian","","No","",""
"24","60ed709632fe290990f0ca64","svTrial","survey",31,1541708,"0.0-2.0-29.0","65553732575bb29198a888d7","65565bdffa1f42364f6b649f",6,"20278","Ishikawa_small_pos_4_1.jpg",NA,NA,NA,NA,NA,NA,NA,NA,NA,NA,NA,NA,NA,NA,NA,NA,"[]","small",2,"sch",4,24,1,3,1,1,3,1,"84721","24","male","man","","caucasian","","No","",""
"25","60ed709632fe290990f0ca64","svTrial","survey",33,1550757,"0.0-2.0-31.0","65553732575bb29198a888d7","65565bdffa1f42364f6b649f",6,"3819","Toyama_large_pos_1_2.jpg",NA,NA,NA,NA,NA,NA,NA,NA,NA,NA,NA,NA,NA,NA,NA,NA,"[]","large",2,"sch",1,25,3,2,4,3,2,1,"84721","24","male","man","","caucasian","","No","",""
"26","60ed709632fe290990f0ca64","svTrial","survey",34,1554816,"0.0-2.0-32.0","65553732575bb29198a888d7","65565bdffa1f42364f6b649f",6,"4051","Niigata_large_pos_11_3.jpg",NA,NA,NA,NA,NA,NA,NA,NA,NA,NA,NA,NA,NA,NA,NA,NA,"[]","large",2,"sch",11,26,1,2,2,2,2,1,"84721","24","male","man","","caucasian","","No","",""
"27","60ed709632fe290990f0ca64","svTrial","survey",35,1564725,"0.0-2.0-33.0","65553732575bb29198a888d7","65565bdffa1f42364f6b649f",6,"9905","Kanagawa_large_sch_12_3.jpg",NA,NA,NA,NA,NA,NA,NA,NA,NA,NA,NA,NA,NA,NA,NA,NA,"[]","large",1,"pos",12,27,5,1,5,3,3,1,"84721","24","male","man","","caucasian","","No","",""
"28","60ed709632fe290990f0ca64","svTrial","survey",36,1578473,"0.0-2.0-34.0","65553732575bb29198a888d7","65565bdffa1f42364f6b649f",6,"13741","Tokyo_middle_pos_6_0.jpg",NA,NA,NA,NA,NA,NA,NA,NA,NA,NA,NA,NA,NA,NA,NA,NA,"[]","large",1,"pos",6,28,2,3,2,4,4,1,"84721","24","male","man","","caucasian","","No","",""
"29","60ed709632fe290990f0ca64","svTrial","survey",37,1587701,"0.0-2.0-35.0","65553732575bb29198a888d7","65565bdffa1f42364f6b649f",6,"9220","Okinawa_middle_pos_1_0.jpg",NA,NA,NA,NA,NA,NA,NA,NA,NA,NA,NA,NA,NA,NA,NA,NA,"[]","middle",1,"pos",1,29,NA,3,3,2,2,1,"84721","24","male","man","","caucasian","","No","",""
"30","60ed709632fe290990f0ca64","svTrial","survey",38,1595034,"0.0-2.0-36.0","65553732575bb29198a888d7","65565bdffa1f42364f6b649f",6,"7324","Okinawa_small_sch_1_0.jpg",NA,NA,NA,NA,NA,NA,NA,NA,NA,NA,NA,NA,NA,NA,NA,NA,"[]","middle",1,"pos",1,30,3,4,4,1,2,1,"84721","24","male","man","","caucasian","","No","",""
"31","60ed709632fe290990f0ca64","svTrial","survey",39,1602175,"0.0-2.0-37.0","65553732575bb29198a888d7","65565bdffa1f42364f6b649f",6,"7132","Ishikawa_small_sch_3_2.jpg",NA,NA,NA,NA,NA,NA,NA,NA,NA,NA,NA,NA,NA,NA,NA,NA,"[]","large",2,"sch",3,31,2,3,2,2,4,1,"84721","24","male","man","","caucasian","","No","",""
"32","60ed709632fe290990f0ca64","svTrial","survey",40,1616593,"0.0-2.0-38.0","65553732575bb29198a888d7","65565bdffa1f42364f6b649f",6,"14410","Hokkaido_large_pos_10_3.jpg",NA,NA,NA,NA,NA,NA,NA,NA,NA,NA,NA,NA,NA,NA,NA,NA,"[]","small",1,"sch",10,32,2,3,2,2,2,1,"84721","24","male","man","","caucasian","","No","",""
"33","60ed709632fe290990f0ca64","svTrial","survey",41,1621363,"0.0-2.0-39.0","65553732575bb29198a888d7","65565bdffa1f42364f6b649f",6,"4760","Niigata_middle_sch_4_2.jpg",NA,NA,NA,NA,NA,NA,NA,NA,NA,NA,NA,NA,NA,NA,NA,NA,"[]","middle",2,"sch",4,33,2,3,2,1,2,1,"84721","24","male","man","","caucasian","","No","",""
"34","60ed709632fe290990f0ca64","svTrial","survey",42,1629909,"0.0-2.0-40.0","65553732575bb29198a888d7","65565bdffa1f42364f6b649f",6,"8542","Ishikawa_large_sch_10_2.jpg",NA,NA,NA,NA,NA,NA,NA,NA,NA,NA,NA,NA,NA,NA,NA,NA,"[]","middle",2,"pos",10,34,4,2,3,2,3,1,"84721","24","male","man","","caucasian","","No","",""
"35","60ed709632fe290990f0ca64","svTrial","survey",43,1636108,"0.0-2.0-41.0","65553732575bb29198a888d7","65565bdffa1f42364f6b649f",6,"6191","Akita_middle_pos_1_0.jpg",NA,NA,NA,NA,NA,NA,NA,NA,NA,NA,NA,NA,NA,NA,NA,NA,"[]","middle",2,"pos",1,35,5,2,2,2,4,1,"84721","24","male","man","","caucasian","","No","",""
"36","60ed709632fe290990f0ca64","svTrial","survey",44,1645633,"0.0-2.0-42.0","65553732575bb29198a888d7","65565bdffa1f42364f6b649f",6,"9516","Toyama_large_pos_6_3.jpg",NA,NA,NA,NA,NA,NA,NA,NA,NA,NA,NA,NA,NA,NA,NA,NA,"[]","large",2,"pos",6,36,5,3,4,2,2,1,"84721","24","male","man","","caucasian","","No","",""
"37","60ed709632fe290990f0ca64","svTrial","survey",45,1652031,"0.0-2.0-43.0","65553732575bb29198a888d7","65565bdffa1f42364f6b649f",6,"6390","Okinawa_large_pos_2_0.jpg",NA,NA,NA,NA,NA,NA,NA,NA,NA,NA,NA,NA,NA,NA,NA,NA,"[]","small",1,"sch",2,37,4,2,2,2,2,1,"84721","24","male","man","","caucasian","","No","",""
"38","60ed709632fe290990f0ca64","svTrial","survey",46,1656643,"0.0-2.0-44.0","65553732575bb29198a888d7","65565bdffa1f42364f6b649f",6,"4603","Niigata_large_pos_5_2.jpg",NA,NA,NA,NA,NA,NA,NA,NA,NA,NA,NA,NA,NA,NA,NA,NA,"[]","small",2,"sch",5,38,1,4,2,NA,3,1,"84721","24","male","man","","caucasian","","No","",""
"39","60ed709632fe290990f0ca64","svTrial","survey",47,1663405,"0.0-2.0-45.0","65553732575bb29198a888d7","65565bdffa1f42364f6b649f",6,"6755","Okinawa_middle_pos_3_3.jpg",NA,NA,NA,NA,NA,NA,NA,NA,NA,NA,NA,NA,NA,NA,NA,NA,"[]","middle",1,"sch",3,39,2,4,2,3,3,1,"84721","24","male","man","","caucasian","","No","",""
"40","60ed709632fe290990f0ca64","svTrial","survey",48,1672670,"0.0-2.0-46.0","65553732575bb29198a888d7","65565bdffa1f42364f6b649f",6,"9256","Ishikawa_middle_pos_1_2.jpg",NA,NA,NA,NA,NA,NA,NA,NA,NA,NA,NA,NA,NA,NA,NA,NA,"[]","small",2,"sch",1,40,4,2,2,3,2,1,"84721","24","male","man","","caucasian","","No","",""
"41","60ed709632fe290990f0ca64","svTrial","survey",50,1686494,"0.0-2.0-48.0","65553732575bb29198a888d7","65565bdffa1f42364f6b649f",6,"8547","Okinawa_large_pos_5_3.jpg",NA,NA,NA,NA,NA,NA,NA,NA,NA,NA,NA,NA,NA,NA,NA,NA,"[]","middle",1,"sch",5,41,3,3,2,2,3,1,"84721","24","male","man","","caucasian","","No","",""
"42","60ed709632fe290990f0ca64","svTrial","survey",51,1694830,"0.0-2.0-49.0","65553732575bb29198a888d7","65565bdffa1f42364f6b649f",6,"8327","Ishikawa_large_pos_2_0.jpg",NA,NA,NA,NA,NA,NA,NA,NA,NA,NA,NA,NA,NA,NA,NA,NA,"[]","large",2,"pos",2,42,5,2,5,3,2,1,"84721","24","male","man","","caucasian","","No","",""
"43","60ed709632fe290990f0ca64","svTrial","survey",52,1700218,"0.0-2.0-50.0","65553732575bb29198a888d7","65565bdffa1f42364f6b649f",6,"5381","Akita_middle_pos_5_1.jpg",NA,NA,NA,NA,NA,NA,NA,NA,NA,NA,NA,NA,NA,NA,NA,NA,"[]","middle",2,"sch",5,43,4,2,2,2,3,1,"84721","24","male","man","","caucasian","","No","",""
"44","60ed709632fe290990f0ca64","svTrial","survey",53,1707950,"0.0-2.0-51.0","65553732575bb29198a888d7","65565bdffa1f42364f6b649f",6,"7722","Tokyo_middle_sch_2_1.jpg",NA,NA,NA,NA,NA,NA,NA,NA,NA,NA,NA,NA,NA,NA,NA,NA,"[]","middle",1,"pos",2,44,4,3,3,2,2,1,"84721","24","male","man","","caucasian","","No","",""
"45","60ed709632fe290990f0ca64","svTrial","survey",54,1720337,"0.0-2.0-52.0","65553732575bb29198a888d7","65565bdffa1f42364f6b649f",6,"12379","Hokkaido_small_pos_2_3.jpg",NA,NA,NA,NA,NA,NA,NA,NA,NA,NA,NA,NA,NA,NA,NA,NA,"[]","middle",1,"sch",2,45,3,3,2,3,2,1,"84721","24","male","man","","caucasian","","No","",""
"46","60ed709632fe290990f0ca64","svTrial","survey",55,1729111,"0.0-2.0-53.0","65553732575bb29198a888d7","65565bdffa1f42364f6b649f",6,"8766","Niigata_small_pos_2_2.jpg",NA,NA,NA,NA,NA,NA,NA,NA,NA,NA,NA,NA,NA,NA,NA,NA,"[]","large",2,"sch",2,46,2,2,3,3,2,1,"84721","24","male","man","","caucasian","","No","",""
"47","60ed709632fe290990f0ca64","svTrial","survey",56,1737256,"0.0-2.0-54.0","65553732575bb29198a888d7","65565bdffa1f42364f6b649f",6,"8137","Okinawa_middle_sch_1_2.jpg",NA,NA,NA,NA,NA,NA,NA,NA,NA,NA,NA,NA,NA,NA,NA,NA,"[]","small",1,"sch",1,47,3,2,3,2,2,1,"84721","24","male","man","","caucasian","","No","",""
"48","60ed709632fe290990f0ca64","svTrial","survey",57,1745712,"0.0-2.0-55.0","65553732575bb29198a888d7","65565bdffa1f42364f6b649f",6,"8448","Okinawa_large_pos_9_2.jpg",NA,NA,NA,NA,NA,NA,NA,NA,NA,NA,NA,NA,NA,NA,NA,NA,"[]","small",1,"sch",9,48,4,2,2,3,3,1,"84721","24","male","man","","caucasian","","No","",""
