"","subject_id","task","trial_type","trial_index","time_elapsed","internal_node_id","study_id","session_id","group","rt","stimulus","width","height","webaudio","browser","browser_version","mobile","os","fullscreen","vsync_rate","webcam","microphone","success","timeout","failed_images","failed_audio","failed_video","accuracy","size","culture","loct","number","document.id","ambiguous","objects","invisible","chaos","complex","passedChecks","zipcode","age","sex","gender","gender-self-describe","ethnicity","ethnicity-self-describe","outsideUS","outsideUS_years","surveyComments"
"1","60f705f462651bb6fadc67ac","svTrial","survey",8,58295,"0.0-2.0-6.0","65553732575bb29198a888d7","65565b8db323854a89d30c3f",5,"21097","Hokkaido_small_sch_2_1.jpg",NA,NA,NA,NA,NA,NA,NA,NA,NA,NA,NA,NA,NA,NA,NA,NA,"[]","small",1,"pos",2,1,4,4,2,5,3,1,"34608","29","male","man","","latino","","No","",""
"2","60f705f462651bb6fadc67ac","svTrial","survey",9,80351,"0.0-2.0-7.0","65553732575bb29198a888d7","65565b8db323854a89d30c3f",5,"22042","Ishikawa_middle_pos_7_3.jpg",NA,NA,NA,NA,NA,NA,NA,NA,NA,NA,NA,NA,NA,NA,NA,NA,"[]","small",2,"sch",7,2,2,2,4,2,2,1,"34608","29","male","man","","latino","","No","",""
"3","60f705f462651bb6fadc67ac","svTrial","survey",10,100736,"0.0-2.0-8.0","65553732575bb29198a888d7","65565b8db323854a89d30c3f",5,"20375","Akita_middle_sch_1_1.jpg",NA,NA,NA,NA,NA,NA,NA,NA,NA,NA,NA,NA,NA,NA,NA,NA,"[]","middle",2,"pos",1,3,2,4,5,2,4,1,"34608","29","male","man","","latino","","No","",""
"4","60f705f462651bb6fadc67ac","svTrial","survey",11,115812,"0.0-2.0-9.0","65553732575bb29198a888d7","65565b8db323854a89d30c3f",5,"15067","Akita_large_sch_5_1.jpg",NA,NA,NA,NA,NA,NA,NA,NA,NA,NA,NA,NA,NA,NA,NA,NA,"[]","middle",2,"pos",5,4,2,4,5,1,4,1,"34608","29","male","man","","latino","","No","",""
"5","60f705f462651bb6fadc67ac","svTrial","survey",12,127652,"0.0-2.0-10.0","65553732575bb29198a888d7","65565b8db323854a89d30c3f",5,"11830","Toyama_large_sch_9_3.jpg",NA,NA,NA,NA,NA,NA,NA,NA,NA,NA,NA,NA,NA,NA,NA,NA,"[]","middle",2,"sch",9,5,4,4,5,2,3,1,"34608","29","male","man","","latino","","No","",""
"6","60f705f462651bb6fadc67ac","svTrial","survey",13,165799,"0.0-2.0-11.0","65553732575bb29198a888d7","65565b8db323854a89d30c3f",5,"38137","Tokyo_large_pos_2_1.jpg",NA,NA,NA,NA,NA,NA,NA,NA,NA,NA,NA,NA,NA,NA,NA,NA,"[]","small",1,"sch",2,6,2,5,3,1,2,1,"34608","29","male","man","","latino","","No","",""
"7","60f705f462651bb6fadc67ac","svTrial","survey",14,182990,"0.0-2.0-12.0","65553732575bb29198a888d7","65565b8db323854a89d30c3f",5,"17182","Akita_large_sch_4_0.jpg",NA,NA,NA,NA,NA,NA,NA,NA,NA,NA,NA,NA,NA,NA,NA,NA,"[]","small",2,"pos",4,7,4,4,4,2,4,1,"34608","29","male","man","","latino","","No","",""
"8","60f705f462651bb6fadc67ac","svTrial","survey",15,195949,"0.0-2.0-13.0","65553732575bb29198a888d7","65565b8db323854a89d30c3f",5,"12951","Okinawa_middle_sch_3_3.jpg",NA,NA,NA,NA,NA,NA,NA,NA,NA,NA,NA,NA,NA,NA,NA,NA,"[]","middle",1,"pos",3,8,2,5,4,4,3,1,"34608","29","male","man","","latino","","No","",""
"9","60f705f462651bb6fadc67ac","svTrial","survey",16,204874,"0.0-2.0-14.0","65553732575bb29198a888d7","65565b8db323854a89d30c3f",5,"8916","Kanagawa_small_sch_1_1.jpg",NA,NA,NA,NA,NA,NA,NA,NA,NA,NA,NA,NA,NA,NA,NA,NA,"[]","large",1,"sch",1,9,3,3,3,3,3,1,"34608","29","male","man","","latino","","No","",""
"10","60f705f462651bb6fadc67ac","svTrial","survey",17,230199,"0.0-2.0-15.0","65553732575bb29198a888d7","65565b8db323854a89d30c3f",5,"25317","Kanagawa_large_sch_5_0.jpg",NA,NA,NA,NA,NA,NA,NA,NA,NA,NA,NA,NA,NA,NA,NA,NA,"[]","middle",1,"pos",5,10,4,4,4,2,2,1,"34608","29","male","man","","latino","","No","",""
"11","60f705f462651bb6fadc67ac","svTrial","survey",18,256551,"0.0-2.0-16.0","65553732575bb29198a888d7","65565b8db323854a89d30c3f",5,"26343","Tokyo_large_sch_7_1.jpg",NA,NA,NA,NA,NA,NA,NA,NA,NA,NA,NA,NA,NA,NA,NA,NA,"[]","large",1,"pos",7,11,2,3,3,1,1,1,"34608","29","male","man","","latino","","No","",""
"12","60f705f462651bb6fadc67ac","svTrial","survey",19,265146,"0.0-2.0-17.0","65553732575bb29198a888d7","65565b8db323854a89d30c3f",5,"8587","Toyama_middle_sch_1_1.jpg",NA,NA,NA,NA,NA,NA,NA,NA,NA,NA,NA,NA,NA,NA,NA,NA,"[]","large",2,"pos",1,12,2,2,3,1,1,1,"34608","29","male","man","","latino","","No","",""
"13","60f705f462651bb6fadc67ac","svTrial","survey",20,277406,"0.0-2.0-18.0","65553732575bb29198a888d7","65565b8db323854a89d30c3f",5,"12253","Hokkaido_large_sch_2_0.jpg",NA,NA,NA,NA,NA,NA,NA,NA,NA,NA,NA,NA,NA,NA,NA,NA,"[]","small",1,"sch",2,13,3,3,4,3,3,1,"34608","29","male","man","","latino","","No","",""
"14","60f705f462651bb6fadc67ac","svTrial","survey",22,320840,"0.0-2.0-20.0","65553732575bb29198a888d7","65565b8db323854a89d30c3f",5,"24911","Ishikawa_large_sch_4_2.jpg",NA,NA,NA,NA,NA,NA,NA,NA,NA,NA,NA,NA,NA,NA,NA,NA,"[]","middle",2,"sch",4,14,3,4,5,3,2,1,"34608","29","male","man","","latino","","No","",""
"15","60f705f462651bb6fadc67ac","svTrial","survey",23,329627,"0.0-2.0-21.0","65553732575bb29198a888d7","65565b8db323854a89d30c3f",5,"8779","Toyama_small_sch_1_1.jpg",NA,NA,NA,NA,NA,NA,NA,NA,NA,NA,NA,NA,NA,NA,NA,NA,"[]","small",2,"sch",1,15,2,3,2,3,2,1,"34608","29","male","man","","latino","","No","",""
"16","60f705f462651bb6fadc67ac","svTrial","survey",24,372892,"0.0-2.0-22.0","65553732575bb29198a888d7","65565b8db323854a89d30c3f",5,"43257","Toyama_large_pos_4_2.jpg",NA,NA,NA,NA,NA,NA,NA,NA,NA,NA,NA,NA,NA,NA,NA,NA,"[]","small",2,"sch",4,16,2,4,4,2,4,1,"34608","29","male","man","","latino","","No","",""
"17","60f705f462651bb6fadc67ac","svTrial","survey",25,383949,"0.0-2.0-23.0","65553732575bb29198a888d7","65565b8db323854a89d30c3f",5,"11049","Niigata_large_pos_1_2.jpg",NA,NA,NA,NA,NA,NA,NA,NA,NA,NA,NA,NA,NA,NA,NA,NA,"[]","middle",2,"pos",1,17,4,4,5,2,3,1,"34608","29","male","man","","latino","","No","",""
"18","60f705f462651bb6fadc67ac","svTrial","survey",26,410180,"0.0-2.0-24.0","65553732575bb29198a888d7","65565b8db323854a89d30c3f",5,"26223","Ishikawa_small_sch_1_3.jpg",NA,NA,NA,NA,NA,NA,NA,NA,NA,NA,NA,NA,NA,NA,NA,NA,"[]","large",2,"sch",1,18,2,1,2,2,1,1,"34608","29","male","man","","latino","","No","",""
"19","60f705f462651bb6fadc67ac","svTrial","survey",27,446973,"0.0-2.0-25.0","65553732575bb29198a888d7","65565b8db323854a89d30c3f",5,"36786","Hokkaido_small_sch_3_0.jpg",NA,NA,NA,NA,NA,NA,NA,NA,NA,NA,NA,NA,NA,NA,NA,NA,"[]","small",1,"sch",3,19,4,5,5,2,4,1,"34608","29","male","man","","latino","","No","",""
"20","60f705f462651bb6fadc67ac","svTrial","survey",28,484172,"0.0-2.0-26.0","65553732575bb29198a888d7","65565b8db323854a89d30c3f",5,"37191","Akita_large_pos_12_3.jpg",NA,NA,NA,NA,NA,NA,NA,NA,NA,NA,NA,NA,NA,NA,NA,NA,"[]","small",2,"sch",12,20,4,3,4,2,3,1,"34608","29","male","man","","latino","","No","",""
"21","60f705f462651bb6fadc67ac","svTrial","survey",29,501959,"0.0-2.0-27.0","65553732575bb29198a888d7","65565b8db323854a89d30c3f",5,"17779","Akita_large_pos_1_0.jpg",NA,NA,NA,NA,NA,NA,NA,NA,NA,NA,NA,NA,NA,NA,NA,NA,"[]","large",2,"pos",1,21,2,2,3,4,1,1,"34608","29","male","man","","latino","","No","",""
"22","60f705f462651bb6fadc67ac","svTrial","survey",30,519402,"0.0-2.0-28.0","65553732575bb29198a888d7","65565b8db323854a89d30c3f",5,"17436","Kanagawa_middle_sch_8_2.jpg",NA,NA,NA,NA,NA,NA,NA,NA,NA,NA,NA,NA,NA,NA,NA,NA,"[]","small",1,"sch",8,22,1,1,1,1,1,1,"34608","29","male","man","","latino","","No","",""
"23","60f705f462651bb6fadc67ac","svTrial","survey",31,538806,"0.0-2.0-29.0","65553732575bb29198a888d7","65565b8db323854a89d30c3f",5,"19396","Tokyo_middle_pos_3_2.jpg",NA,NA,NA,NA,NA,NA,NA,NA,NA,NA,NA,NA,NA,NA,NA,NA,"[]","middle",1,"pos",3,23,2,4,4,2,4,1,"34608","29","male","man","","latino","","No","",""
"24","60f705f462651bb6fadc67ac","svTrial","survey",32,553732,"0.0-2.0-30.0","65553732575bb29198a888d7","65565b8db323854a89d30c3f",5,"14917","Niigata_large_pos_3_3.jpg",NA,NA,NA,NA,NA,NA,NA,NA,NA,NA,NA,NA,NA,NA,NA,NA,"[]","large",2,"pos",3,24,2,2,2,1,2,1,"34608","29","male","man","","latino","","No","",""
"25","60f705f462651bb6fadc67ac","svTrial","survey",34,584680,"0.0-2.0-32.0","65553732575bb29198a888d7","65565b8db323854a89d30c3f",5,"15188","Niigata_middle_pos_6_3.jpg",NA,NA,NA,NA,NA,NA,NA,NA,NA,NA,NA,NA,NA,NA,NA,NA,"[]","small",2,"sch",6,25,2,2,4,3,3,1,"34608","29","male","man","","latino","","No","",""
"26","60f705f462651bb6fadc67ac","svTrial","survey",35,611861,"0.0-2.0-33.0","65553732575bb29198a888d7","65565b8db323854a89d30c3f",5,"27172","Akita_large_pos_11_3.jpg",NA,NA,NA,NA,NA,NA,NA,NA,NA,NA,NA,NA,NA,NA,NA,NA,"[]","small",2,"sch",11,26,1,2,1,1,1,1,"34608","29","male","man","","latino","","No","",""
"27","60f705f462651bb6fadc67ac","svTrial","survey",36,621238,"0.0-2.0-34.0","65553732575bb29198a888d7","65565b8db323854a89d30c3f",5,"9370","Okinawa_large_sch_4_3.jpg",NA,NA,NA,NA,NA,NA,NA,NA,NA,NA,NA,NA,NA,NA,NA,NA,"[]","middle",1,"pos",4,27,3,2,4,2,4,1,"34608","29","male","man","","latino","","No","",""
"28","60f705f462651bb6fadc67ac","svTrial","survey",37,632374,"0.0-2.0-35.0","65553732575bb29198a888d7","65565b8db323854a89d30c3f",5,"11128","Niigata_small_pos_3_0.jpg",NA,NA,NA,NA,NA,NA,NA,NA,NA,NA,NA,NA,NA,NA,NA,NA,"[]","small",2,"pos",3,28,1,2,2,1,1,1,"34608","29","male","man","","latino","","No","",""
"29","60f705f462651bb6fadc67ac","svTrial","survey",38,653336,"0.0-2.0-36.0","65553732575bb29198a888d7","65565b8db323854a89d30c3f",5,"20954","Hokkaido_small_pos_3_3.jpg",NA,NA,NA,NA,NA,NA,NA,NA,NA,NA,NA,NA,NA,NA,NA,NA,"[]","middle",1,"sch",3,29,1,3,2,3,3,1,"34608","29","male","man","","latino","","No","",""
"30","60f705f462651bb6fadc67ac","svTrial","survey",39,703286,"0.0-2.0-37.0","65553732575bb29198a888d7","65565b8db323854a89d30c3f",5,"49943","Kanagawa_middle_sch_5_1.jpg",NA,NA,NA,NA,NA,NA,NA,NA,NA,NA,NA,NA,NA,NA,NA,NA,"[]","large",1,"sch",5,30,2,3,4,3,3,1,"34608","29","male","man","","latino","","No","",""
"31","60f705f462651bb6fadc67ac","svTrial","survey",40,727706,"0.0-2.0-38.0","65553732575bb29198a888d7","65565b8db323854a89d30c3f",5,"24412","Tokyo_large_sch_8_1.jpg",NA,NA,NA,NA,NA,NA,NA,NA,NA,NA,NA,NA,NA,NA,NA,NA,"[]","large",1,"sch",8,31,3,4,2,2,1,1,"34608","29","male","man","","latino","","No","",""
"32","60f705f462651bb6fadc67ac","svTrial","survey",41,740874,"0.0-2.0-39.0","65553732575bb29198a888d7","65565b8db323854a89d30c3f",5,"13159","Toyama_large_pos_8_2.jpg",NA,NA,NA,NA,NA,NA,NA,NA,NA,NA,NA,NA,NA,NA,NA,NA,"[]","large",2,"pos",8,32,2,2,2,2,1,1,"34608","29","male","man","","latino","","No","",""
"33","60f705f462651bb6fadc67ac","svTrial","survey",42,760656,"0.0-2.0-40.0","65553732575bb29198a888d7","65565b8db323854a89d30c3f",5,"19775","Tokyo_large_pos_7_2.jpg",NA,NA,NA,NA,NA,NA,NA,NA,NA,NA,NA,NA,NA,NA,NA,NA,"[]","large",1,"pos",7,33,4,4,4,5,4,1,"34608","29","male","man","","latino","","No","",""
"34","60f705f462651bb6fadc67ac","svTrial","survey",43,770678,"0.0-2.0-41.0","65553732575bb29198a888d7","65565b8db323854a89d30c3f",5,"10015","Kanagawa_small_sch_3_2.jpg",NA,NA,NA,NA,NA,NA,NA,NA,NA,NA,NA,NA,NA,NA,NA,NA,"[]","small",1,"pos",3,34,1,2,2,1,1,1,"34608","29","male","man","","latino","","No","",""
"35","60f705f462651bb6fadc67ac","svTrial","survey",44,784470,"0.0-2.0-42.0","65553732575bb29198a888d7","65565b8db323854a89d30c3f",5,"13784","Ishikawa_large_pos_8_1.jpg",NA,NA,NA,NA,NA,NA,NA,NA,NA,NA,NA,NA,NA,NA,NA,NA,"[]","large",2,"pos",8,35,2,1,2,1,1,1,"34608","29","male","man","","latino","","No","",""
"36","60f705f462651bb6fadc67ac","svTrial","survey",45,796003,"0.0-2.0-43.0","65553732575bb29198a888d7","65565b8db323854a89d30c3f",5,"11526","Akita_small_pos_2_2.jpg",NA,NA,NA,NA,NA,NA,NA,NA,NA,NA,NA,NA,NA,NA,NA,NA,"[]","large",2,"sch",2,36,3,3,2,1,3,1,"34608","29","male","man","","latino","","No","",""
"37","60f705f462651bb6fadc67ac","svTrial","survey",46,807127,"0.0-2.0-44.0","65553732575bb29198a888d7","65565b8db323854a89d30c3f",5,"11116","Ishikawa_large_pos_10_2.jpg",NA,NA,NA,NA,NA,NA,NA,NA,NA,NA,NA,NA,NA,NA,NA,NA,"[]","small",2,"pos",10,37,2,4,3,3,3,1,"34608","29","male","man","","latino","","No","",""
"38","60f705f462651bb6fadc67ac","svTrial","survey",47,817514,"0.0-2.0-45.0","65553732575bb29198a888d7","65565b8db323854a89d30c3f",5,"10380","Kanagawa_large_pos_3_1.jpg",NA,NA,NA,NA,NA,NA,NA,NA,NA,NA,NA,NA,NA,NA,NA,NA,"[]","small",1,"sch",3,38,5,5,5,4,4,1,"34608","29","male","man","","latino","","No","",""
"39","60f705f462651bb6fadc67ac","svTrial","survey",48,849056,"0.0-2.0-46.0","65553732575bb29198a888d7","65565b8db323854a89d30c3f",5,"31534","Ishikawa_small_sch_4_2.jpg",NA,NA,NA,NA,NA,NA,NA,NA,NA,NA,NA,NA,NA,NA,NA,NA,"[]","small",2,"sch",4,39,2,2,1,1,1,1,"34608","29","male","man","","latino","","No","",""
"40","60f705f462651bb6fadc67ac","svTrial","survey",49,857905,"0.0-2.0-47.0","65553732575bb29198a888d7","65565b8db323854a89d30c3f",5,"8842","Hokkaido_small_pos_1_0.jpg",NA,NA,NA,NA,NA,NA,NA,NA,NA,NA,NA,NA,NA,NA,NA,NA,"[]","small",1,"pos",1,40,2,2,3,2,3,1,"34608","29","male","man","","latino","","No","",""
"41","60f705f462651bb6fadc67ac","svTrial","survey",50,874280,"0.0-2.0-48.0","65553732575bb29198a888d7","65565b8db323854a89d30c3f",5,"16367","Hokkaido_middle_pos_4_3.jpg",NA,NA,NA,NA,NA,NA,NA,NA,NA,NA,NA,NA,NA,NA,NA,NA,"[]","middle",1,"sch",4,41,2,4,3,2,3,1,"34608","29","male","man","","latino","","No","",""
"42","60f705f462651bb6fadc67ac","svTrial","survey",51,911333,"0.0-2.0-49.0","65553732575bb29198a888d7","65565b8db323854a89d30c3f",5,"37045","Akita_large_sch_8_2.jpg",NA,NA,NA,NA,NA,NA,NA,NA,NA,NA,NA,NA,NA,NA,NA,NA,"[]","middle",2,"pos",8,42,2,3,2,2,3,1,"34608","29","male","man","","latino","","No","",""
"43","60f705f462651bb6fadc67ac","svTrial","survey",52,924893,"0.0-2.0-50.0","65553732575bb29198a888d7","65565b8db323854a89d30c3f",5,"13552","Hokkaido_large_pos_5_2.jpg",NA,NA,NA,NA,NA,NA,NA,NA,NA,NA,NA,NA,NA,NA,NA,NA,"[]","small",1,"pos",5,43,3,4,4,4,3,1,"34608","29","male","man","","latino","","No","",""
"44","60f705f462651bb6fadc67ac","svTrial","survey",53,934059,"0.0-2.0-51.0","65553732575bb29198a888d7","65565b8db323854a89d30c3f",5,"9158","Tokyo_small_pos_2_0.jpg",NA,NA,NA,NA,NA,NA,NA,NA,NA,NA,NA,NA,NA,NA,NA,NA,"[]","small",1,"sch",2,44,3,4,3,4,3,1,"34608","29","male","man","","latino","","No","",""
"45","60f705f462651bb6fadc67ac","svTrial","survey",54,944773,"0.0-2.0-52.0","65553732575bb29198a888d7","65565b8db323854a89d30c3f",5,"10706","Toyama_large_pos_9_0.jpg",NA,NA,NA,NA,NA,NA,NA,NA,NA,NA,NA,NA,NA,NA,NA,NA,"[]","middle",2,"sch",9,45,2,3,2,4,3,1,"34608","29","male","man","","latino","","No","",""
"46","60f705f462651bb6fadc67ac","svTrial","survey",55,953990,"0.0-2.0-53.0","65553732575bb29198a888d7","65565b8db323854a89d30c3f",5,"9210","Kanagawa_large_sch_8_2.jpg",NA,NA,NA,NA,NA,NA,NA,NA,NA,NA,NA,NA,NA,NA,NA,NA,"[]","small",1,"pos",8,46,4,3,4,4,3,1,"34608","29","male","man","","latino","","No","",""
"47","60f705f462651bb6fadc67ac","svTrial","survey",56,968946,"0.0-2.0-54.0","65553732575bb29198a888d7","65565b8db323854a89d30c3f",5,"14948","Kanagawa_middle_pos_4_3.jpg",NA,NA,NA,NA,NA,NA,NA,NA,NA,NA,NA,NA,NA,NA,NA,NA,"[]","small",1,"sch",4,47,4,3,4,4,3,1,"34608","29","male","man","","latino","","No","",""
"48","60f705f462651bb6fadc67ac","svTrial","survey",57,989889,"0.0-2.0-55.0","65553732575bb29198a888d7","65565b8db323854a89d30c3f",5,"20935","Tokyo_middle_sch_6_2.jpg",NA,NA,NA,NA,NA,NA,NA,NA,NA,NA,NA,NA,NA,NA,NA,NA,"[]","small",1,"sch",6,48,4,3,4,2,3,1,"34608","29","male","man","","latino","","No","",""
