"","subject_id","task","trial_type","trial_index","time_elapsed","internal_node_id","study_id","session_id","group","rt","stimulus","width","height","webaudio","browser","browser_version","mobile","os","fullscreen","vsync_rate","webcam","microphone","success","timeout","failed_images","failed_audio","failed_video","accuracy","size","culture","loct","number","document.id","ambiguous","objects","invisible","chaos","complex","passedChecks","zipcode","age","sex","gender","gender-self-describe","ethnicity","ethnicity-self-describe","outsideUS","outsideUS_years","surveyComments"
"1","60fdab454b8c00448c10fa27","svTrial","survey",8,183262,"0.0-2.0-6.0","65553732575bb29198a888d7","65565b6b2f351bb29015f92a",6,"81729","Toyama_middle_sch_8_3.jpg",NA,NA,NA,NA,NA,NA,NA,NA,NA,NA,NA,NA,NA,NA,NA,NA,"[]","middle",2,"pos",8,1,2,2,3,2,2,1,"95405","28","male","man","","caucasian","","No","",""
"2","60fdab454b8c00448c10fa27","svTrial","survey",9,215518,"0.0-2.0-7.0","65553732575bb29198a888d7","65565b6b2f351bb29015f92a",6,"32237","Okinawa_large_sch_5_3.jpg",NA,NA,NA,NA,NA,NA,NA,NA,NA,NA,NA,NA,NA,NA,NA,NA,"[]","small",1,"pos",5,2,3,1,4,2,4,1,"95405","28","male","man","","caucasian","","No","",""
"3","60fdab454b8c00448c10fa27","svTrial","survey",10,255876,"0.0-2.0-8.0","65553732575bb29198a888d7","65565b6b2f351bb29015f92a",6,"40341","Ishikawa_middle_pos_1_3.jpg",NA,NA,NA,NA,NA,NA,NA,NA,NA,NA,NA,NA,NA,NA,NA,NA,"[]","small",2,"sch",1,3,1,1,4,1,1,1,"95405","28","male","man","","caucasian","","No","",""
"4","60fdab454b8c00448c10fa27","svTrial","survey",11,358057,"0.0-2.0-9.0","65553732575bb29198a888d7","65565b6b2f351bb29015f92a",6,"102164","Niigata_large_sch_7_3.jpg",NA,NA,NA,NA,NA,NA,NA,NA,NA,NA,NA,NA,NA,NA,NA,NA,"[]","small",2,"pos",7,4,1,1,2,2,2,1,"95405","28","male","man","","caucasian","","No","",""
"5","60fdab454b8c00448c10fa27","svTrial","survey",12,384852,"0.0-2.0-10.0","65553732575bb29198a888d7","65565b6b2f351bb29015f92a",6,"26779","Ishikawa_large_sch_10_3.jpg",NA,NA,NA,NA,NA,NA,NA,NA,NA,NA,NA,NA,NA,NA,NA,NA,"[]","middle",2,"pos",10,5,1,1,2,1,1,1,"95405","28","male","man","","caucasian","","No","",""
"6","60fdab454b8c00448c10fa27","svTrial","survey",13,448756,"0.0-2.0-11.0","65553732575bb29198a888d7","65565b6b2f351bb29015f92a",6,"63890","Toyama_large_pos_1_0.jpg",NA,NA,NA,NA,NA,NA,NA,NA,NA,NA,NA,NA,NA,NA,NA,NA,"[]","large",2,"sch",1,6,1,1,1,1,1,1,"95405","28","male","man","","caucasian","","No","",""
"7","60fdab454b8c00448c10fa27","svTrial","survey",14,508799,"0.0-2.0-12.0","65553732575bb29198a888d7","65565b6b2f351bb29015f92a",6,"60028","Okinawa_middle_pos_3_1.jpg",NA,NA,NA,NA,NA,NA,NA,NA,NA,NA,NA,NA,NA,NA,NA,NA,"[]","middle",1,"sch",3,7,4,3,2,3,3,1,"95405","28","male","man","","caucasian","","No","",""
"8","60fdab454b8c00448c10fa27","svTrial","survey",15,536534,"0.0-2.0-13.0","65553732575bb29198a888d7","65565b6b2f351bb29015f92a",6,"27711","Okinawa_middle_sch_1_2.jpg",NA,NA,NA,NA,NA,NA,NA,NA,NA,NA,NA,NA,NA,NA,NA,NA,"[]","small",1,"sch",1,8,1,1,3,2,3,1,"95405","28","male","man","","caucasian","","No","",""
"9","60fdab454b8c00448c10fa27","svTrial","survey",16,551086,"0.0-2.0-14.0","65553732575bb29198a888d7","65565b6b2f351bb29015f92a",6,"14539","Akita_middle_sch_8_0.jpg",NA,NA,NA,NA,NA,NA,NA,NA,NA,NA,NA,NA,NA,NA,NA,NA,"[]","large",2,"sch",8,9,1,1,1,1,1,1,"95405","28","male","man","","caucasian","","No","",""
"10","60fdab454b8c00448c10fa27","svTrial","survey",17,574023,"0.0-2.0-15.0","65553732575bb29198a888d7","65565b6b2f351bb29015f92a",6,"22926","Niigata_large_pos_11_2.jpg",NA,NA,NA,NA,NA,NA,NA,NA,NA,NA,NA,NA,NA,NA,NA,NA,"[]","large",2,"sch",11,10,3,2,2,2,3,1,"95405","28","male","man","","caucasian","","No","",""
"11","60fdab454b8c00448c10fa27","svTrial","survey",18,590755,"0.0-2.0-16.0","65553732575bb29198a888d7","65565b6b2f351bb29015f92a",6,"16720","Okinawa_large_pos_5_2.jpg",NA,NA,NA,NA,NA,NA,NA,NA,NA,NA,NA,NA,NA,NA,NA,NA,"[]","middle",1,"sch",5,11,3,2,3,3,2,1,"95405","28","male","man","","caucasian","","No","",""
"12","60fdab454b8c00448c10fa27","svTrial","survey",19,618666,"0.0-2.0-17.0","65553732575bb29198a888d7","65565b6b2f351bb29015f92a",6,"27898","Hokkaido_large_pos_10_2.jpg",NA,NA,NA,NA,NA,NA,NA,NA,NA,NA,NA,NA,NA,NA,NA,NA,"[]","small",1,"sch",10,12,2,2,1,2,2,1,"95405","28","male","man","","caucasian","","No","",""
"13","60fdab454b8c00448c10fa27","svTrial","survey",20,749396,"0.0-2.0-18.0","65553732575bb29198a888d7","65565b6b2f351bb29015f92a",6,"130715","Toyama_large_pos_6_3.jpg",NA,NA,NA,NA,NA,NA,NA,NA,NA,NA,NA,NA,NA,NA,NA,NA,"[]","large",2,"pos",6,13,5,2,4,2,2,1,"95405","28","male","man","","caucasian","","No","",""
"14","60fdab454b8c00448c10fa27","svTrial","survey",21,793719,"0.0-2.0-19.0","65553732575bb29198a888d7","65565b6b2f351bb29015f92a",6,"44311","Tokyo_middle_sch_2_1.jpg",NA,NA,NA,NA,NA,NA,NA,NA,NA,NA,NA,NA,NA,NA,NA,NA,"[]","middle",1,"pos",2,14,1,3,4,2,3,1,"95405","28","male","man","","caucasian","","No","",""
"15","60fdab454b8c00448c10fa27","svTrial","survey",22,844074,"0.0-2.0-20.0","65553732575bb29198a888d7","65565b6b2f351bb29015f92a",6,"50341","Tokyo_large_sch_2_3.jpg",NA,NA,NA,NA,NA,NA,NA,NA,NA,NA,NA,NA,NA,NA,NA,NA,"[]","large",1,"pos",2,15,5,4,5,5,4,1,"95405","28","male","man","","caucasian","","No","",""
"16","60fdab454b8c00448c10fa27","svTrial","survey",23,890388,"0.0-2.0-21.0","65553732575bb29198a888d7","65565b6b2f351bb29015f92a",6,"46303","Akita_large_pos_7_3.jpg",NA,NA,NA,NA,NA,NA,NA,NA,NA,NA,NA,NA,NA,NA,NA,NA,"[]","large",2,"sch",7,16,5,2,4,3,3,1,"95405","28","male","man","","caucasian","","No","",""
"17","60fdab454b8c00448c10fa27","svTrial","survey",24,922495,"0.0-2.0-22.0","65553732575bb29198a888d7","65565b6b2f351bb29015f92a",6,"32093","Niigata_large_pos_5_2.jpg",NA,NA,NA,NA,NA,NA,NA,NA,NA,NA,NA,NA,NA,NA,NA,NA,"[]","small",2,"sch",5,17,4,4,4,4,4,1,"95405","28","male","man","","caucasian","","No","",""
"18","60fdab454b8c00448c10fa27","svTrial","survey",25,947554,"0.0-2.0-23.0","65553732575bb29198a888d7","65565b6b2f351bb29015f92a",6,"25047","Akita_middle_pos_5_1.jpg",NA,NA,NA,NA,NA,NA,NA,NA,NA,NA,NA,NA,NA,NA,NA,NA,"[]","middle",2,"sch",5,18,1,1,4,1,1,1,"95405","28","male","man","","caucasian","","No","",""
"19","60fdab454b8c00448c10fa27","svTrial","survey",26,975535,"0.0-2.0-24.0","65553732575bb29198a888d7","65565b6b2f351bb29015f92a",6,"27968","Hokkaido_large_pos_9_1.jpg",NA,NA,NA,NA,NA,NA,NA,NA,NA,NA,NA,NA,NA,NA,NA,NA,"[]","small",1,"sch",9,19,5,4,4,3,3,1,"95405","28","male","man","","caucasian","","No","",""
"20","60fdab454b8c00448c10fa27","svTrial","survey",27,994919,"0.0-2.0-25.0","65553732575bb29198a888d7","65565b6b2f351bb29015f92a",6,"19373","Hokkaido_small_pos_2_0.jpg",NA,NA,NA,NA,NA,NA,NA,NA,NA,NA,NA,NA,NA,NA,NA,NA,"[]","middle",1,"sch",2,20,4,4,5,3,4,1,"95405","28","male","man","","caucasian","","No","",""
"21","60fdab454b8c00448c10fa27","svTrial","survey",28,1019309,"0.0-2.0-26.0","65553732575bb29198a888d7","65565b6b2f351bb29015f92a",6,"24377","Akita_large_sch_12_0.jpg",NA,NA,NA,NA,NA,NA,NA,NA,NA,NA,NA,NA,NA,NA,NA,NA,"[]","small",2,"pos",12,21,4,3,2,3,3,1,"95405","28","male","man","","caucasian","","No","",""
"22","60fdab454b8c00448c10fa27","svTrial","survey",29,1041994,"0.0-2.0-27.0","65553732575bb29198a888d7","65565b6b2f351bb29015f92a",6,"22673","Okinawa_middle_pos_1_1.jpg",NA,NA,NA,NA,NA,NA,NA,NA,NA,NA,NA,NA,NA,NA,NA,NA,"[]","middle",1,"pos",1,22,2,2,3,2,2,1,"95405","28","male","man","","caucasian","","No","",""
"23","60fdab454b8c00448c10fa27","svTrial","survey",30,1064167,"0.0-2.0-28.0","65553732575bb29198a888d7","65565b6b2f351bb29015f92a",6,"22162","Ishikawa_small_sch_3_3.jpg",NA,NA,NA,NA,NA,NA,NA,NA,NA,NA,NA,NA,NA,NA,NA,NA,"[]","large",2,"sch",3,23,2,1,2,4,2,1,"95405","28","male","man","","caucasian","","No","",""
"24","60fdab454b8c00448c10fa27","svTrial","survey",31,1081314,"0.0-2.0-29.0","65553732575bb29198a888d7","65565b6b2f351bb29015f92a",6,"17135","Niigata_middle_sch_4_1.jpg",NA,NA,NA,NA,NA,NA,NA,NA,NA,NA,NA,NA,NA,NA,NA,NA,"[]","middle",2,"sch",4,24,1,2,1,1,1,1,"95405","28","male","man","","caucasian","","No","",""
"25","60fdab454b8c00448c10fa27","svTrial","survey",33,1122269,"0.0-2.0-31.0","65553732575bb29198a888d7","65565b6b2f351bb29015f92a",6,"25187","Niigata_small_pos_2_3.jpg",NA,NA,NA,NA,NA,NA,NA,NA,NA,NA,NA,NA,NA,NA,NA,NA,"[]","large",2,"sch",2,25,2,2,1,1,3,1,"95405","28","male","man","","caucasian","","No","",""
"26","60fdab454b8c00448c10fa27","svTrial","survey",34,1142241,"0.0-2.0-32.0","65553732575bb29198a888d7","65565b6b2f351bb29015f92a",6,"19959","Okinawa_large_sch_12_2.jpg",NA,NA,NA,NA,NA,NA,NA,NA,NA,NA,NA,NA,NA,NA,NA,NA,"[]","large",1,"pos",12,26,4,1,2,3,2,1,"95405","28","male","man","","caucasian","","No","",""
"27","60fdab454b8c00448c10fa27","svTrial","survey",35,1163424,"0.0-2.0-33.0","65553732575bb29198a888d7","65565b6b2f351bb29015f92a",6,"21173","Ishikawa_small_pos_4_1.jpg",NA,NA,NA,NA,NA,NA,NA,NA,NA,NA,NA,NA,NA,NA,NA,NA,"[]","small",2,"sch",4,27,2,1,2,2,2,1,"95405","28","male","man","","caucasian","","No","",""
"28","60fdab454b8c00448c10fa27","svTrial","survey",36,1181601,"0.0-2.0-34.0","65553732575bb29198a888d7","65565b6b2f351bb29015f92a",6,"18165","Okinawa_large_pos_3_2.jpg",NA,NA,NA,NA,NA,NA,NA,NA,NA,NA,NA,NA,NA,NA,NA,NA,"[]","large",1,"sch",3,28,3,1,2,2,2,1,"95405","28","male","man","","caucasian","","No","",""
"29","60fdab454b8c00448c10fa27","svTrial","survey",37,1205831,"0.0-2.0-35.0","65553732575bb29198a888d7","65565b6b2f351bb29015f92a",6,"24219","Okinawa_large_pos_9_3.jpg",NA,NA,NA,NA,NA,NA,NA,NA,NA,NA,NA,NA,NA,NA,NA,NA,"[]","small",1,"sch",9,29,2,2,3,1,3,1,"95405","28","male","man","","caucasian","","No","",""
"30","60fdab454b8c00448c10fa27","svTrial","survey",38,1228764,"0.0-2.0-36.0","65553732575bb29198a888d7","65565b6b2f351bb29015f92a",6,"22919","Ishikawa_large_pos_2_1.jpg",NA,NA,NA,NA,NA,NA,NA,NA,NA,NA,NA,NA,NA,NA,NA,NA,"[]","large",2,"pos",2,30,3,2,4,3,2,1,"95405","28","male","man","","caucasian","","No","",""
"31","60fdab454b8c00448c10fa27","svTrial","survey",39,1249743,"0.0-2.0-37.0","65553732575bb29198a888d7","65565b6b2f351bb29015f92a",6,"20968","Akita_middle_pos_1_2.jpg",NA,NA,NA,NA,NA,NA,NA,NA,NA,NA,NA,NA,NA,NA,NA,NA,"[]","middle",2,"pos",1,31,1,1,1,2,1,1,"95405","28","male","man","","caucasian","","No","",""
"32","60fdab454b8c00448c10fa27","svTrial","survey",40,1275322,"0.0-2.0-38.0","65553732575bb29198a888d7","65565b6b2f351bb29015f92a",6,"25568","Niigata_large_pos_12_3.jpg",NA,NA,NA,NA,NA,NA,NA,NA,NA,NA,NA,NA,NA,NA,NA,NA,"[]","large",2,"pos",12,32,4,3,4,4,4,1,"95405","28","male","man","","caucasian","","No","",""
"33","60fdab454b8c00448c10fa27","svTrial","survey",41,1336849,"0.0-2.0-39.0","65553732575bb29198a888d7","65565b6b2f351bb29015f92a",6,"61515","Hokkaido_middle_pos_3_1.jpg",NA,NA,NA,NA,NA,NA,NA,NA,NA,NA,NA,NA,NA,NA,NA,NA,"[]","middle",1,"pos",3,33,3,3,3,2,3,1,"95405","28","male","man","","caucasian","","No","",""
"34","60fdab454b8c00448c10fa27","svTrial","survey",42,1352412,"0.0-2.0-40.0","65553732575bb29198a888d7","65565b6b2f351bb29015f92a",6,"15554","Okinawa_small_sch_4_3.jpg",NA,NA,NA,NA,NA,NA,NA,NA,NA,NA,NA,NA,NA,NA,NA,NA,"[]","large",1,"sch",4,34,2,1,2,1,1,1,"95405","28","male","man","","caucasian","","No","",""
"35","60fdab454b8c00448c10fa27","svTrial","survey",43,1377449,"0.0-2.0-41.0","65553732575bb29198a888d7","65565b6b2f351bb29015f92a",6,"25024","Hokkaido_large_sch_5_2.jpg",NA,NA,NA,NA,NA,NA,NA,NA,NA,NA,NA,NA,NA,NA,NA,NA,"[]","middle",1,"pos",5,35,2,3,4,2,3,1,"95405","28","male","man","","caucasian","","No","",""
"36","60fdab454b8c00448c10fa27","svTrial","survey",44,1399872,"0.0-2.0-42.0","65553732575bb29198a888d7","65565b6b2f351bb29015f92a",6,"22414","Okinawa_large_pos_2_3.jpg",NA,NA,NA,NA,NA,NA,NA,NA,NA,NA,NA,NA,NA,NA,NA,NA,"[]","small",1,"sch",2,36,4,3,2,3,3,1,"95405","28","male","man","","caucasian","","No","",""
"37","60fdab454b8c00448c10fa27","svTrial","survey",45,1418724,"0.0-2.0-43.0","65553732575bb29198a888d7","65565b6b2f351bb29015f92a",6,"18840","Kanagawa_middle_pos_1_1.jpg",NA,NA,NA,NA,NA,NA,NA,NA,NA,NA,NA,NA,NA,NA,NA,NA,"[]","small",1,"pos",1,37,3,3,4,2,2,1,"95405","28","male","man","","caucasian","","No","",""
"38","60fdab454b8c00448c10fa27","svTrial","survey",46,1449304,"0.0-2.0-44.0","65553732575bb29198a888d7","65565b6b2f351bb29015f92a",6,"30570","Tokyo_middle_pos_6_2.jpg",NA,NA,NA,NA,NA,NA,NA,NA,NA,NA,NA,NA,NA,NA,NA,NA,"[]","large",1,"pos",6,38,3,2,2,3,2,1,"95405","28","male","man","","caucasian","","No","",""
"39","60fdab454b8c00448c10fa27","svTrial","survey",47,1471814,"0.0-2.0-45.0","65553732575bb29198a888d7","65565b6b2f351bb29015f92a",6,"22497","Okinawa_small_sch_1_3.jpg",NA,NA,NA,NA,NA,NA,NA,NA,NA,NA,NA,NA,NA,NA,NA,NA,"[]","middle",1,"pos",1,39,2,3,1,2,1,1,"95405","28","male","man","","caucasian","","No","",""
"40","60fdab454b8c00448c10fa27","svTrial","survey",48,1498898,"0.0-2.0-46.0","65553732575bb29198a888d7","65565b6b2f351bb29015f92a",6,"27072","Hokkaido_middle_sch_4_1.jpg",NA,NA,NA,NA,NA,NA,NA,NA,NA,NA,NA,NA,NA,NA,NA,NA,"[]","middle",1,"sch",4,40,2,2,3,1,1,1,"95405","28","male","man","","caucasian","","No","",""
"41","60fdab454b8c00448c10fa27","svTrial","survey",49,1523184,"0.0-2.0-47.0","65553732575bb29198a888d7","65565b6b2f351bb29015f92a",6,"24273","Toyama_large_sch_10_2.jpg",NA,NA,NA,NA,NA,NA,NA,NA,NA,NA,NA,NA,NA,NA,NA,NA,"[]","large",2,"pos",10,41,2,3,2,3,3,1,"95405","28","male","man","","caucasian","","No","",""
"42","60fdab454b8c00448c10fa27","svTrial","survey",50,1546553,"0.0-2.0-48.0","65553732575bb29198a888d7","65565b6b2f351bb29015f92a",6,"23358","Akita_large_pos_10_1.jpg",NA,NA,NA,NA,NA,NA,NA,NA,NA,NA,NA,NA,NA,NA,NA,NA,"[]","middle",2,"pos",10,42,3,2,4,2,3,1,"95405","28","male","man","","caucasian","","No","",""
"43","60fdab454b8c00448c10fa27","svTrial","survey",51,1568833,"0.0-2.0-49.0","65553732575bb29198a888d7","65565b6b2f351bb29015f92a",6,"22268","Kanagawa_large_sch_12_0.jpg",NA,NA,NA,NA,NA,NA,NA,NA,NA,NA,NA,NA,NA,NA,NA,NA,"[]","large",1,"pos",12,43,5,5,4,5,5,1,"95405","28","male","man","","caucasian","","No","",""
"44","60fdab454b8c00448c10fa27","svTrial","survey",52,1594352,"0.0-2.0-50.0","65553732575bb29198a888d7","65565b6b2f351bb29015f92a",6,"25509","Hokkaido_large_sch_8_0.jpg",NA,NA,NA,NA,NA,NA,NA,NA,NA,NA,NA,NA,NA,NA,NA,NA,"[]","large",1,"pos",8,44,2,2,1,2,1,1,"95405","28","male","man","","caucasian","","No","",""
"45","60fdab454b8c00448c10fa27","svTrial","survey",53,1619525,"0.0-2.0-51.0","65553732575bb29198a888d7","65565b6b2f351bb29015f92a",6,"25161","Okinawa_middle_sch_4_0.jpg",NA,NA,NA,NA,NA,NA,NA,NA,NA,NA,NA,NA,NA,NA,NA,NA,"[]","small",1,"pos",4,45,1,1,5,1,1,1,"95405","28","male","man","","caucasian","","No","",""
"46","60fdab454b8c00448c10fa27","svTrial","survey",55,1650820,"0.0-2.0-53.0","65553732575bb29198a888d7","65565b6b2f351bb29015f92a",6,"24055","Akita_large_pos_5_0.jpg",NA,NA,NA,NA,NA,NA,NA,NA,NA,NA,NA,NA,NA,NA,NA,NA,"[]","large",2,"pos",5,46,2,1,1,1,1,1,"95405","28","male","man","","caucasian","","No","",""
"47","60fdab454b8c00448c10fa27","svTrial","survey",56,1669633,"0.0-2.0-54.0","65553732575bb29198a888d7","65565b6b2f351bb29015f92a",6,"18801","Toyama_large_pos_11_2.jpg",NA,NA,NA,NA,NA,NA,NA,NA,NA,NA,NA,NA,NA,NA,NA,NA,"[]","small",2,"sch",11,47,1,1,2,1,2,1,"95405","28","male","man","","caucasian","","No","",""
"48","60fdab454b8c00448c10fa27","svTrial","survey",57,1694962,"0.0-2.0-55.0","65553732575bb29198a888d7","65565b6b2f351bb29015f92a",6,"25319","Ishikawa_large_sch_3_3.jpg",NA,NA,NA,NA,NA,NA,NA,NA,NA,NA,NA,NA,NA,NA,NA,NA,"[]","middle",2,"pos",3,48,2,2,2,3,2,1,"95405","28","male","man","","caucasian","","No","",""
