"","subject_id","task","trial_type","trial_index","time_elapsed","internal_node_id","study_id","session_id","group","rt","stimulus","width","height","webaudio","browser","browser_version","mobile","os","fullscreen","vsync_rate","webcam","microphone","success","timeout","failed_images","failed_audio","failed_video","accuracy","size","culture","loct","number","document.id","ambiguous","objects","invisible","chaos","complex","passedChecks","zipcode","age","sex","gender","gender-self-describe","ethnicity","ethnicity-self-describe","outsideUS","outsideUS_years","surveyComments"
"1","60fd9135aaa2d80f12687450","svTrial","survey",8,96494,"0.0-2.0-6.0","65553732575bb29198a888d7","65565a0f9c4a8730b4fc0868",4,"19462","Niigata_large_pos_10_0.jpg",NA,NA,NA,NA,NA,NA,NA,NA,NA,NA,NA,NA,NA,NA,NA,NA,"[]","small",2,"pos",10,1,3,3,4,2,4,1,"31763","33","male","man","","caucasian","","No","",""
"2","60fd9135aaa2d80f12687450","svTrial","survey",9,110804,"0.0-2.0-7.0","65553732575bb29198a888d7","65565a0f9c4a8730b4fc0868",4,"14292","Tokyo_small_pos_1_3.jpg",NA,NA,NA,NA,NA,NA,NA,NA,NA,NA,NA,NA,NA,NA,NA,NA,"[]","large",1,"pos",1,2,4,2,5,4,3,1,"31763","33","male","man","","caucasian","","No","",""
"3","60fd9135aaa2d80f12687450","svTrial","survey",10,124347,"0.0-2.0-8.0","65553732575bb29198a888d7","65565a0f9c4a8730b4fc0868",4,"13532","Tokyo_large_pos_3_3.jpg",NA,NA,NA,NA,NA,NA,NA,NA,NA,NA,NA,NA,NA,NA,NA,NA,"[]","large",1,"sch",3,3,1,2,5,2,2,1,"31763","33","male","man","","caucasian","","No","",""
"4","60fd9135aaa2d80f12687450","svTrial","survey",11,144410,"0.0-2.0-9.0","65553732575bb29198a888d7","65565a0f9c4a8730b4fc0868",4,"20053","Kanagawa_middle_pos_8_0.jpg",NA,NA,NA,NA,NA,NA,NA,NA,NA,NA,NA,NA,NA,NA,NA,NA,"[]","middle",1,"sch",8,4,3,2,3,4,2,1,"31763","33","male","man","","caucasian","","No","",""
"5","60fd9135aaa2d80f12687450","svTrial","survey",12,161570,"0.0-2.0-10.0","65553732575bb29198a888d7","65565a0f9c4a8730b4fc0868",4,"17149","Tokyo_middle_sch_3_3.jpg",NA,NA,NA,NA,NA,NA,NA,NA,NA,NA,NA,NA,NA,NA,NA,NA,"[]","middle",1,"pos",3,5,2,2,3,2,2,1,"31763","33","male","man","","caucasian","","No","",""
"6","60fd9135aaa2d80f12687450","svTrial","survey",13,173797,"0.0-2.0-11.0","65553732575bb29198a888d7","65565a0f9c4a8730b4fc0868",4,"12215","Tokyo_small_pos_4_3.jpg",NA,NA,NA,NA,NA,NA,NA,NA,NA,NA,NA,NA,NA,NA,NA,NA,"[]","large",1,"sch",4,6,4,3,4,2,2,1,"31763","33","male","man","","caucasian","","No","",""
"7","60fd9135aaa2d80f12687450","svTrial","survey",14,188756,"0.0-2.0-12.0","65553732575bb29198a888d7","65565a0f9c4a8730b4fc0868",4,"14951","Akita_small_sch_3_0.jpg",NA,NA,NA,NA,NA,NA,NA,NA,NA,NA,NA,NA,NA,NA,NA,NA,"[]","large",2,"pos",3,7,2,2,3,3,2,1,"31763","33","male","man","","caucasian","","No","",""
"8","60fd9135aaa2d80f12687450","svTrial","survey",15,198534,"0.0-2.0-13.0","65553732575bb29198a888d7","65565a0f9c4a8730b4fc0868",4,"9767","Niigata_large_sch_5_1.jpg",NA,NA,NA,NA,NA,NA,NA,NA,NA,NA,NA,NA,NA,NA,NA,NA,"[]","small",2,"pos",5,8,5,2,5,4,3,1,"31763","33","male","man","","caucasian","","No","",""
"9","60fd9135aaa2d80f12687450","svTrial","survey",16,212301,"0.0-2.0-14.0","65553732575bb29198a888d7","65565a0f9c4a8730b4fc0868",4,"13757","Okinawa_large_sch_7_0.jpg",NA,NA,NA,NA,NA,NA,NA,NA,NA,NA,NA,NA,NA,NA,NA,NA,"[]","small",1,"pos",7,9,2,2,3,3,2,1,"31763","33","male","man","","caucasian","","No","",""
"10","60fd9135aaa2d80f12687450","svTrial","survey",17,223276,"0.0-2.0-15.0","65553732575bb29198a888d7","65565a0f9c4a8730b4fc0868",4,"10967","Toyama_middle_sch_7_0.jpg",NA,NA,NA,NA,NA,NA,NA,NA,NA,NA,NA,NA,NA,NA,NA,NA,"[]","middle",2,"pos",7,10,2,4,4,4,2,1,"31763","33","male","man","","caucasian","","No","",""
"11","60fd9135aaa2d80f12687450","svTrial","survey",18,236134,"0.0-2.0-16.0","65553732575bb29198a888d7","65565a0f9c4a8730b4fc0868",4,"12848","Ishikawa_large_sch_9_2.jpg",NA,NA,NA,NA,NA,NA,NA,NA,NA,NA,NA,NA,NA,NA,NA,NA,"[]","large",2,"pos",9,11,2,3,2,2,2,1,"31763","33","male","man","","caucasian","","No","",""
"12","60fd9135aaa2d80f12687450","svTrial","survey",20,261518,"0.0-2.0-18.0","65553732575bb29198a888d7","65565a0f9c4a8730b4fc0868",4,"15116","Akita_small_pos_4_3.jpg",NA,NA,NA,NA,NA,NA,NA,NA,NA,NA,NA,NA,NA,NA,NA,NA,"[]","small",2,"pos",4,12,1,2,2,1,2,1,"31763","33","male","man","","caucasian","","No","",""
"13","60fd9135aaa2d80f12687450","svTrial","survey",21,274135,"0.0-2.0-19.0","65553732575bb29198a888d7","65565a0f9c4a8730b4fc0868",4,"12608","Ishikawa_middle_sch_8_3.jpg",NA,NA,NA,NA,NA,NA,NA,NA,NA,NA,NA,NA,NA,NA,NA,NA,"[]","middle",2,"sch",8,13,2,3,1,1,1,1,"31763","33","male","man","","caucasian","","No","",""
"14","60fd9135aaa2d80f12687450","svTrial","survey",22,280350,"0.0-2.0-20.0","65553732575bb29198a888d7","65565a0f9c4a8730b4fc0868",4,"6205","Niigata_middle_pos_5_2.jpg",NA,NA,NA,NA,NA,NA,NA,NA,NA,NA,NA,NA,NA,NA,NA,NA,"[]","middle",2,"pos",5,14,2,2,3,2,1,1,"31763","33","male","man","","caucasian","","No","",""
"15","60fd9135aaa2d80f12687450","svTrial","survey",23,293344,"0.0-2.0-21.0","65553732575bb29198a888d7","65565a0f9c4a8730b4fc0868",4,"12983","Kanagawa_large_sch_2_1.jpg",NA,NA,NA,NA,NA,NA,NA,NA,NA,NA,NA,NA,NA,NA,NA,NA,"[]","large",1,"pos",2,15,2,1,4,2,1,1,"31763","33","male","man","","caucasian","","No","",""
"16","60fd9135aaa2d80f12687450","svTrial","survey",24,304440,"0.0-2.0-22.0","65553732575bb29198a888d7","65565a0f9c4a8730b4fc0868",4,"11087","Kanagawa_small_sch_4_1.jpg",NA,NA,NA,NA,NA,NA,NA,NA,NA,NA,NA,NA,NA,NA,NA,NA,"[]","middle",1,"pos",4,16,5,3,4,4,2,1,"31763","33","male","man","","caucasian","","No","",""
"17","60fd9135aaa2d80f12687450","svTrial","survey",25,314752,"0.0-2.0-23.0","65553732575bb29198a888d7","65565a0f9c4a8730b4fc0868",4,"10302","Kanagawa_large_pos_9_1.jpg",NA,NA,NA,NA,NA,NA,NA,NA,NA,NA,NA,NA,NA,NA,NA,NA,"[]","small",1,"pos",9,17,4,3,3,4,2,1,"31763","33","male","man","","caucasian","","No","",""
"18","60fd9135aaa2d80f12687450","svTrial","survey",26,327834,"0.0-2.0-24.0","65553732575bb29198a888d7","65565a0f9c4a8730b4fc0868",4,"13074","Okinawa_middle_sch_7_0.jpg",NA,NA,NA,NA,NA,NA,NA,NA,NA,NA,NA,NA,NA,NA,NA,NA,"[]","large",1,"pos",7,18,1,2,1,1,NA,1,"31763","33","male","man","","caucasian","","No","",""
"19","60fd9135aaa2d80f12687450","svTrial","survey",27,343040,"0.0-2.0-25.0","65553732575bb29198a888d7","65565a0f9c4a8730b4fc0868",4,"15196","Ishikawa_middle_sch_2_1.jpg",NA,NA,NA,NA,NA,NA,NA,NA,NA,NA,NA,NA,NA,NA,NA,NA,"[]","middle",2,"pos",2,19,2,1,2,3,2,1,"31763","33","male","man","","caucasian","","No","",""
"20","60fd9135aaa2d80f12687450","svTrial","survey",28,353833,"0.0-2.0-26.0","65553732575bb29198a888d7","65565a0f9c4a8730b4fc0868",4,"10784","Okinawa_small_pos_4_3.jpg",NA,NA,NA,NA,NA,NA,NA,NA,NA,NA,NA,NA,NA,NA,NA,NA,"[]","middle",1,"sch",4,20,5,3,4,4,3,1,"31763","33","male","man","","caucasian","","No","",""
"21","60fd9135aaa2d80f12687450","svTrial","survey",29,364122,"0.0-2.0-27.0","65553732575bb29198a888d7","65565a0f9c4a8730b4fc0868",4,"10280","Ishikawa_middle_sch_1_0.jpg",NA,NA,NA,NA,NA,NA,NA,NA,NA,NA,NA,NA,NA,NA,NA,NA,"[]","small",2,"sch",1,21,3,4,4,4,2,1,"31763","33","male","man","","caucasian","","No","",""
"22","60fd9135aaa2d80f12687450","svTrial","survey",30,374129,"0.0-2.0-28.0","65553732575bb29198a888d7","65565a0f9c4a8730b4fc0868",4,"9999","Okinawa_middle_pos_2_2.jpg",NA,NA,NA,NA,NA,NA,NA,NA,NA,NA,NA,NA,NA,NA,NA,NA,"[]","small",1,"sch",2,22,5,3,3,3,2,1,"31763","33","male","man","","caucasian","","No","",""
"23","60fd9135aaa2d80f12687450","svTrial","survey",31,382562,"0.0-2.0-29.0","65553732575bb29198a888d7","65565a0f9c4a8730b4fc0868",4,"8424","Toyama_middle_sch_3_1.jpg",NA,NA,NA,NA,NA,NA,NA,NA,NA,NA,NA,NA,NA,NA,NA,NA,"[]","large",2,"sch",3,23,3,2,3,3,2,1,"31763","33","male","man","","caucasian","","No","",""
"24","60fd9135aaa2d80f12687450","svTrial","survey",32,403849,"0.0-2.0-30.0","65553732575bb29198a888d7","65565a0f9c4a8730b4fc0868",4,"21280","Ishikawa_large_pos_1_2.jpg",NA,NA,NA,NA,NA,NA,NA,NA,NA,NA,NA,NA,NA,NA,NA,NA,"[]","middle",2,"sch",1,24,4,3,3,4,2,1,"31763","33","male","man","","caucasian","","No","",""
"25","60fd9135aaa2d80f12687450","svTrial","survey",34,422035,"0.0-2.0-32.0","65553732575bb29198a888d7","65565a0f9c4a8730b4fc0868",4,"12421","Ishikawa_middle_sch_5_2.jpg",NA,NA,NA,NA,NA,NA,NA,NA,NA,NA,NA,NA,NA,NA,NA,NA,"[]","small",2,"sch",5,25,3,3,4,4,3,1,"31763","33","male","man","","caucasian","","No","",""
"26","60fd9135aaa2d80f12687450","svTrial","survey",35,431659,"0.0-2.0-33.0","65553732575bb29198a888d7","65565a0f9c4a8730b4fc0868",4,"9614","Ishikawa_middle_sch_4_3.jpg",NA,NA,NA,NA,NA,NA,NA,NA,NA,NA,NA,NA,NA,NA,NA,NA,"[]","middle",2,"sch",4,26,2,2,1,2,1,1,"31763","33","male","man","","caucasian","","No","",""
"27","60fd9135aaa2d80f12687450","svTrial","survey",36,441763,"0.0-2.0-34.0","65553732575bb29198a888d7","65565a0f9c4a8730b4fc0868",4,"10094","Akita_large_sch_11_1.jpg",NA,NA,NA,NA,NA,NA,NA,NA,NA,NA,NA,NA,NA,NA,NA,NA,"[]","small",2,"sch",11,27,3,3,4,3,2,1,"31763","33","male","man","","caucasian","","No","",""
"28","60fd9135aaa2d80f12687450","svTrial","survey",37,452147,"0.0-2.0-35.0","65553732575bb29198a888d7","65565a0f9c4a8730b4fc0868",4,"10375","Akita_large_pos_3_3.jpg",NA,NA,NA,NA,NA,NA,NA,NA,NA,NA,NA,NA,NA,NA,NA,NA,"[]","middle",2,"pos",3,28,5,4,3,4,3,1,"31763","33","male","man","","caucasian","","No","",""
"29","60fd9135aaa2d80f12687450","svTrial","survey",38,460163,"0.0-2.0-36.0","65553732575bb29198a888d7","65565a0f9c4a8730b4fc0868",4,"8005","Hokkaido_large_pos_1_2.jpg",NA,NA,NA,NA,NA,NA,NA,NA,NA,NA,NA,NA,NA,NA,NA,NA,"[]","large",1,"sch",1,29,4,2,4,2,3,1,"31763","33","male","man","","caucasian","","No","",""
"30","60fd9135aaa2d80f12687450","svTrial","survey",39,468772,"0.0-2.0-37.0","65553732575bb29198a888d7","65565a0f9c4a8730b4fc0868",4,"8600","Ishikawa_large_sch_12_2.jpg",NA,NA,NA,NA,NA,NA,NA,NA,NA,NA,NA,NA,NA,NA,NA,NA,"[]","middle",2,"pos",12,30,5,4,4,3,3,1,"31763","33","male","man","","caucasian","","No","",""
"31","60fd9135aaa2d80f12687450","svTrial","survey",40,477428,"0.0-2.0-38.0","65553732575bb29198a888d7","65565a0f9c4a8730b4fc0868",4,"8647","Akita_middle_sch_5_1.jpg",NA,NA,NA,NA,NA,NA,NA,NA,NA,NA,NA,NA,NA,NA,NA,NA,"[]","small",2,"pos",5,31,4,3,4,3,2,1,"31763","33","male","man","","caucasian","","No","",""
"32","60fd9135aaa2d80f12687450","svTrial","survey",41,492156,"0.0-2.0-39.0","65553732575bb29198a888d7","65565a0f9c4a8730b4fc0868",4,"14721","Toyama_small_pos_2_2.jpg",NA,NA,NA,NA,NA,NA,NA,NA,NA,NA,NA,NA,NA,NA,NA,NA,"[]","small",2,"sch",2,32,4,4,5,2,2,1,"31763","33","male","man","","caucasian","","No","",""
"33","60fd9135aaa2d80f12687450","svTrial","survey",42,500644,"0.0-2.0-40.0","65553732575bb29198a888d7","65565a0f9c4a8730b4fc0868",4,"8478","Ishikawa_small_pos_3_2.jpg",NA,NA,NA,NA,NA,NA,NA,NA,NA,NA,NA,NA,NA,NA,NA,NA,"[]","middle",2,"pos",3,33,3,2,3,2,2,1,"31763","33","male","man","","caucasian","","No","",""
"34","60fd9135aaa2d80f12687450","svTrial","survey",43,505732,"0.0-2.0-41.0","65553732575bb29198a888d7","65565a0f9c4a8730b4fc0868",4,"5080","Tokyo_middle_pos_8_2.jpg",NA,NA,NA,NA,NA,NA,NA,NA,NA,NA,NA,NA,NA,NA,NA,NA,"[]","large",1,"sch",8,34,4,2,2,3,3,1,"31763","33","male","man","","caucasian","","No","",""
"35","60fd9135aaa2d80f12687450","svTrial","survey",44,514004,"0.0-2.0-42.0","65553732575bb29198a888d7","65565a0f9c4a8730b4fc0868",4,"8263","Hokkaido_middle_sch_7_3.jpg",NA,NA,NA,NA,NA,NA,NA,NA,NA,NA,NA,NA,NA,NA,NA,NA,"[]","small",1,"pos",7,35,4,2,3,3,3,1,"31763","33","male","man","","caucasian","","No","",""
"36","60fd9135aaa2d80f12687450","svTrial","survey",45,522269,"0.0-2.0-43.0","65553732575bb29198a888d7","65565a0f9c4a8730b4fc0868",4,"8258","Tokyo_large_sch_12_0.jpg",NA,NA,NA,NA,NA,NA,NA,NA,NA,NA,NA,NA,NA,NA,NA,NA,"[]","middle",1,"sch",12,36,5,4,4,4,3,1,"31763","33","male","man","","caucasian","","No","",""
"37","60fd9135aaa2d80f12687450","svTrial","survey",46,531404,"0.0-2.0-44.0","65553732575bb29198a888d7","65565a0f9c4a8730b4fc0868",4,"9123","Kanagawa_middle_pos_5_3.jpg",NA,NA,NA,NA,NA,NA,NA,NA,NA,NA,NA,NA,NA,NA,NA,NA,"[]","large",1,"pos",5,37,4,3,3,2,2,1,"31763","33","male","man","","caucasian","","No","",""
"38","60fd9135aaa2d80f12687450","svTrial","survey",47,542389,"0.0-2.0-45.0","65553732575bb29198a888d7","65565a0f9c4a8730b4fc0868",4,"10976","Kanagawa_middle_pos_3_1.jpg",NA,NA,NA,NA,NA,NA,NA,NA,NA,NA,NA,NA,NA,NA,NA,NA,"[]","large",1,"pos",3,38,4,4,3,4,3,1,"31763","33","male","man","","caucasian","","No","",""
"39","60fd9135aaa2d80f12687450","svTrial","survey",48,549933,"0.0-2.0-46.0","65553732575bb29198a888d7","65565a0f9c4a8730b4fc0868",4,"7536","Ishikawa_large_pos_4_0.jpg",NA,NA,NA,NA,NA,NA,NA,NA,NA,NA,NA,NA,NA,NA,NA,NA,"[]","middle",2,"pos",4,39,4,2,3,3,2,1,"31763","33","male","man","","caucasian","","No","",""
"40","60fd9135aaa2d80f12687450","svTrial","survey",49,562652,"0.0-2.0-47.0","65553732575bb29198a888d7","65565a0f9c4a8730b4fc0868",4,"12709","Akita_large_sch_9_3.jpg",NA,NA,NA,NA,NA,NA,NA,NA,NA,NA,NA,NA,NA,NA,NA,NA,"[]","large",2,"pos",9,40,1,1,1,1,1,1,"31763","33","male","man","","caucasian","","No","",""
"41","60fd9135aaa2d80f12687450","svTrial","survey",50,569780,"0.0-2.0-48.0","65553732575bb29198a888d7","65565a0f9c4a8730b4fc0868",4,"7119","Hokkaido_middle_pos_8_0.jpg",NA,NA,NA,NA,NA,NA,NA,NA,NA,NA,NA,NA,NA,NA,NA,NA,"[]","middle",1,"pos",8,41,4,3,3,3,2,1,"31763","33","male","man","","caucasian","","No","",""
"42","60fd9135aaa2d80f12687450","svTrial","survey",51,577476,"0.0-2.0-49.0","65553732575bb29198a888d7","65565a0f9c4a8730b4fc0868",4,"7688","Akita_large_sch_6_2.jpg",NA,NA,NA,NA,NA,NA,NA,NA,NA,NA,NA,NA,NA,NA,NA,NA,"[]","large",2,"sch",6,42,4,2,3,2,2,1,"31763","33","male","man","","caucasian","","No","",""
"43","60fd9135aaa2d80f12687450","svTrial","survey",52,586692,"0.0-2.0-50.0","65553732575bb29198a888d7","65565a0f9c4a8730b4fc0868",4,"9208","Tokyo_middle_sch_7_1.jpg",NA,NA,NA,NA,NA,NA,NA,NA,NA,NA,NA,NA,NA,NA,NA,NA,"[]","middle",1,"sch",7,43,4,4,3,3,2,1,"31763","33","male","man","","caucasian","","No","",""
"44","60fd9135aaa2d80f12687450","svTrial","survey",53,591918,"0.0-2.0-51.0","65553732575bb29198a888d7","65565a0f9c4a8730b4fc0868",4,"5217","Okinawa_large_pos_8_3.jpg",NA,NA,NA,NA,NA,NA,NA,NA,NA,NA,NA,NA,NA,NA,NA,NA,"[]","middle",1,"pos",8,44,4,3,2,2,1,1,"31763","33","male","man","","caucasian","","No","",""
"45","60fd9135aaa2d80f12687450","svTrial","survey",54,601094,"0.0-2.0-52.0","65553732575bb29198a888d7","65565a0f9c4a8730b4fc0868",4,"9167","Ishikawa_large_sch_2_2.jpg",NA,NA,NA,NA,NA,NA,NA,NA,NA,NA,NA,NA,NA,NA,NA,NA,"[]","middle",2,"sch",2,45,4,3,4,2,2,1,"31763","33","male","man","","caucasian","","No","",""
"46","60fd9135aaa2d80f12687450","svTrial","survey",55,612910,"0.0-2.0-53.0","65553732575bb29198a888d7","65565a0f9c4a8730b4fc0868",4,"11809","Kanagawa_large_sch_9_3.jpg",NA,NA,NA,NA,NA,NA,NA,NA,NA,NA,NA,NA,NA,NA,NA,NA,"[]","large",1,"pos",9,46,4,3,3,2,2,1,"31763","33","male","man","","caucasian","","No","",""
"47","60fd9135aaa2d80f12687450","svTrial","survey",56,621943,"0.0-2.0-54.0","65553732575bb29198a888d7","65565a0f9c4a8730b4fc0868",4,"9025","Tokyo_middle_pos_7_1.jpg",NA,NA,NA,NA,NA,NA,NA,NA,NA,NA,NA,NA,NA,NA,NA,NA,"[]","middle",1,"pos",7,47,5,4,5,4,3,1,"31763","33","male","man","","caucasian","","No","",""
"48","60fd9135aaa2d80f12687450","svTrial","survey",57,632390,"0.0-2.0-55.0","65553732575bb29198a888d7","65565a0f9c4a8730b4fc0868",4,"10439","Okinawa_large_pos_6_0.jpg",NA,NA,NA,NA,NA,NA,NA,NA,NA,NA,NA,NA,NA,NA,NA,NA,"[]","middle",1,"pos",6,48,3,4,4,3,3,1,"31763","33","male","man","","caucasian","","No","",""
