"","subject_id","task","trial_type","trial_index","time_elapsed","internal_node_id","study_id","session_id","group","rt","stimulus","width","height","webaudio","browser","browser_version","mobile","os","fullscreen","vsync_rate","webcam","microphone","success","timeout","failed_images","failed_audio","failed_video","accuracy","size","culture","loct","number","document.id","ambiguous","objects","invisible","chaos","complex","passedChecks","zipcode","age","sex","gender","gender-self-describe","ethnicity","ethnicity-self-describe","outsideUS","outsideUS_years","surveyComments"
"1","60fece35afedb0bdd821592a","svTrial","survey",8,62608,"0.0-2.0-6.0","65553732575bb29198a888d7","65565aa0fcef5629d30d3b34",6,"24716","Niigata_large_sch_7_3.jpg",NA,NA,NA,NA,NA,NA,NA,NA,NA,NA,NA,NA,NA,NA,NA,NA,"[]","small",2,"pos",7,1,5,2,5,5,3,1,"30507","45","female","woman","","caucasian","","Yes","1 year","None, best of luck to you."
"2","60fece35afedb0bdd821592a","svTrial","survey",9,82499,"0.0-2.0-7.0","65553732575bb29198a888d7","65565aa0fcef5629d30d3b34",6,"19879","Hokkaido_large_sch_5_0.jpg",NA,NA,NA,NA,NA,NA,NA,NA,NA,NA,NA,NA,NA,NA,NA,NA,"[]","middle",1,"pos",5,2,1,2,1,1,3,1,"30507","45","female","woman","","caucasian","","Yes","1 year","None, best of luck to you."
"3","60fece35afedb0bdd821592a","svTrial","survey",10,98847,"0.0-2.0-8.0","65553732575bb29198a888d7","65565aa0fcef5629d30d3b34",6,"16337","Niigata_small_pos_2_1.jpg",NA,NA,NA,NA,NA,NA,NA,NA,NA,NA,NA,NA,NA,NA,NA,NA,"[]","large",2,"sch",2,3,1,1,1,1,1,1,"30507","45","female","woman","","caucasian","","Yes","1 year","None, best of luck to you."
"4","60fece35afedb0bdd821592a","svTrial","survey",11,114244,"0.0-2.0-9.0","65553732575bb29198a888d7","65565aa0fcef5629d30d3b34",6,"15388","Hokkaido_large_pos_10_0.jpg",NA,NA,NA,NA,NA,NA,NA,NA,NA,NA,NA,NA,NA,NA,NA,NA,"[]","small",1,"sch",10,4,2,1,1,2,3,1,"30507","45","female","woman","","caucasian","","Yes","1 year","None, best of luck to you."
"5","60fece35afedb0bdd821592a","svTrial","survey",12,126611,"0.0-2.0-10.0","65553732575bb29198a888d7","65565aa0fcef5629d30d3b34",6,"12357","Hokkaido_middle_pos_3_3.jpg",NA,NA,NA,NA,NA,NA,NA,NA,NA,NA,NA,NA,NA,NA,NA,NA,"[]","middle",1,"pos",3,5,5,5,5,5,5,1,"30507","45","female","woman","","caucasian","","Yes","1 year","None, best of luck to you."
"6","60fece35afedb0bdd821592a","svTrial","survey",14,160329,"0.0-2.0-12.0","65553732575bb29198a888d7","65565aa0fcef5629d30d3b34",6,"23927","Akita_large_pos_5_2.jpg",NA,NA,NA,NA,NA,NA,NA,NA,NA,NA,NA,NA,NA,NA,NA,NA,"[]","large",2,"pos",5,6,4,4,3,4,5,1,"30507","45","female","woman","","caucasian","","Yes","1 year","None, best of luck to you."
"7","60fece35afedb0bdd821592a","svTrial","survey",15,175512,"0.0-2.0-13.0","65553732575bb29198a888d7","65565aa0fcef5629d30d3b34",6,"15178","Tokyo_large_sch_2_1.jpg",NA,NA,NA,NA,NA,NA,NA,NA,NA,NA,NA,NA,NA,NA,NA,NA,"[]","large",1,"pos",2,7,1,1,1,1,3,1,"30507","45","female","woman","","caucasian","","Yes","1 year","None, best of luck to you."
"8","60fece35afedb0bdd821592a","svTrial","survey",16,197235,"0.0-2.0-14.0","65553732575bb29198a888d7","65565aa0fcef5629d30d3b34",6,"21714","Hokkaido_small_pos_2_1.jpg",NA,NA,NA,NA,NA,NA,NA,NA,NA,NA,NA,NA,NA,NA,NA,NA,"[]","middle",1,"sch",2,8,3,1,2,2,3,1,"30507","45","female","woman","","caucasian","","Yes","1 year","None, best of luck to you."
"9","60fece35afedb0bdd821592a","svTrial","survey",17,214002,"0.0-2.0-15.0","65553732575bb29198a888d7","65565aa0fcef5629d30d3b34",6,"16758","Toyama_middle_sch_8_1.jpg",NA,NA,NA,NA,NA,NA,NA,NA,NA,NA,NA,NA,NA,NA,NA,NA,"[]","middle",2,"pos",8,9,4,1,1,2,3,1,"30507","45","female","woman","","caucasian","","Yes","1 year","None, best of luck to you."
"10","60fece35afedb0bdd821592a","svTrial","survey",18,227567,"0.0-2.0-16.0","65553732575bb29198a888d7","65565aa0fcef5629d30d3b34",6,"13556","Toyama_large_pos_11_3.jpg",NA,NA,NA,NA,NA,NA,NA,NA,NA,NA,NA,NA,NA,NA,NA,NA,"[]","small",2,"sch",11,10,5,5,5,5,4,1,"30507","45","female","woman","","caucasian","","Yes","1 year","None, best of luck to you."
"11","60fece35afedb0bdd821592a","svTrial","survey",19,246758,"0.0-2.0-17.0","65553732575bb29198a888d7","65565aa0fcef5629d30d3b34",6,"19183","Akita_middle_pos_5_0.jpg",NA,NA,NA,NA,NA,NA,NA,NA,NA,NA,NA,NA,NA,NA,NA,NA,"[]","middle",2,"sch",5,11,3,2,3,3,3,1,"30507","45","female","woman","","caucasian","","Yes","1 year","None, best of luck to you."
"12","60fece35afedb0bdd821592a","svTrial","survey",20,260769,"0.0-2.0-18.0","65553732575bb29198a888d7","65565aa0fcef5629d30d3b34",6,"14004","Akita_large_pos_10_1.jpg",NA,NA,NA,NA,NA,NA,NA,NA,NA,NA,NA,NA,NA,NA,NA,NA,"[]","middle",2,"pos",10,12,1,1,1,1,1,1,"30507","45","female","woman","","caucasian","","Yes","1 year","None, best of luck to you."
"13","60fece35afedb0bdd821592a","svTrial","survey",21,272890,"0.0-2.0-19.0","65553732575bb29198a888d7","65565aa0fcef5629d30d3b34",6,"12112","Hokkaido_middle_sch_4_1.jpg",NA,NA,NA,NA,NA,NA,NA,NA,NA,NA,NA,NA,NA,NA,NA,NA,"[]","middle",1,"sch",4,13,4,2,2,3,3,1,"30507","45","female","woman","","caucasian","","Yes","1 year","None, best of luck to you."
"14","60fece35afedb0bdd821592a","svTrial","survey",22,286744,"0.0-2.0-20.0","65553732575bb29198a888d7","65565aa0fcef5629d30d3b34",6,"13847","Akita_middle_pos_1_1.jpg",NA,NA,NA,NA,NA,NA,NA,NA,NA,NA,NA,NA,NA,NA,NA,NA,"[]","middle",2,"pos",1,14,4,3,3,3,3,1,"30507","45","female","woman","","caucasian","","Yes","1 year","None, best of luck to you."
"15","60fece35afedb0bdd821592a","svTrial","survey",23,294989,"0.0-2.0-21.0","65553732575bb29198a888d7","65565aa0fcef5629d30d3b34",6,"8236","Okinawa_large_pos_3_0.jpg",NA,NA,NA,NA,NA,NA,NA,NA,NA,NA,NA,NA,NA,NA,NA,NA,"[]","large",1,"sch",3,15,1,1,1,1,1,1,"30507","45","female","woman","","caucasian","","Yes","1 year","None, best of luck to you."
"16","60fece35afedb0bdd821592a","svTrial","survey",24,301343,"0.0-2.0-22.0","65553732575bb29198a888d7","65565aa0fcef5629d30d3b34",6,"6345","Okinawa_large_pos_9_0.jpg",NA,NA,NA,NA,NA,NA,NA,NA,NA,NA,NA,NA,NA,NA,NA,NA,"[]","small",1,"sch",9,16,1,1,1,1,1,1,"30507","45","female","woman","","caucasian","","Yes","1 year","None, best of luck to you."
"17","60fece35afedb0bdd821592a","svTrial","survey",25,311396,"0.0-2.0-23.0","65553732575bb29198a888d7","65565aa0fcef5629d30d3b34",6,"10046","Kanagawa_large_sch_12_1.jpg",NA,NA,NA,NA,NA,NA,NA,NA,NA,NA,NA,NA,NA,NA,NA,NA,"[]","large",1,"pos",12,17,1,1,2,1,1,1,"30507","45","female","woman","","caucasian","","Yes","1 year","None, best of luck to you."
"18","60fece35afedb0bdd821592a","svTrial","survey",26,317662,"0.0-2.0-24.0","65553732575bb29198a888d7","65565aa0fcef5629d30d3b34",6,"6258","Toyama_large_pos_6_2.jpg",NA,NA,NA,NA,NA,NA,NA,NA,NA,NA,NA,NA,NA,NA,NA,NA,"[]","large",2,"pos",6,18,1,1,1,1,1,1,"30507","45","female","woman","","caucasian","","Yes","1 year","None, best of luck to you."
"19","60fece35afedb0bdd821592a","svTrial","survey",27,326440,"0.0-2.0-25.0","65553732575bb29198a888d7","65565aa0fcef5629d30d3b34",6,"8770","Tokyo_middle_sch_2_2.jpg",NA,NA,NA,NA,NA,NA,NA,NA,NA,NA,NA,NA,NA,NA,NA,NA,"[]","middle",1,"pos",2,19,1,1,1,1,1,1,"30507","45","female","woman","","caucasian","","Yes","1 year","None, best of luck to you."
"20","60fece35afedb0bdd821592a","svTrial","survey",28,336276,"0.0-2.0-26.0","65553732575bb29198a888d7","65565aa0fcef5629d30d3b34",6,"9827","Kanagawa_middle_pos_1_3.jpg",NA,NA,NA,NA,NA,NA,NA,NA,NA,NA,NA,NA,NA,NA,NA,NA,"[]","small",1,"pos",1,20,4,4,4,4,4,1,"30507","45","female","woman","","caucasian","","Yes","1 year","None, best of luck to you."
"21","60fece35afedb0bdd821592a","svTrial","survey",29,341508,"0.0-2.0-27.0","65553732575bb29198a888d7","65565aa0fcef5629d30d3b34",6,"5223","Okinawa_middle_sch_4_2.jpg",NA,NA,NA,NA,NA,NA,NA,NA,NA,NA,NA,NA,NA,NA,NA,NA,"[]","small",1,"pos",4,21,1,1,1,1,1,1,"30507","45","female","woman","","caucasian","","Yes","1 year","None, best of luck to you."
"22","60fece35afedb0bdd821592a","svTrial","survey",30,360562,"0.0-2.0-28.0","65553732575bb29198a888d7","65565aa0fcef5629d30d3b34",6,"19047","Toyama_large_sch_10_1.jpg",NA,NA,NA,NA,NA,NA,NA,NA,NA,NA,NA,NA,NA,NA,NA,NA,"[]","large",2,"pos",10,22,5,2,3,3,3,1,"30507","45","female","woman","","caucasian","","Yes","1 year","None, best of luck to you."
"23","60fece35afedb0bdd821592a","svTrial","survey",31,367022,"0.0-2.0-29.0","65553732575bb29198a888d7","65565aa0fcef5629d30d3b34",6,"6452","Toyama_large_pos_1_0.jpg",NA,NA,NA,NA,NA,NA,NA,NA,NA,NA,NA,NA,NA,NA,NA,NA,"[]","large",2,"sch",1,23,1,1,1,1,1,1,"30507","45","female","woman","","caucasian","","Yes","1 year","None, best of luck to you."
"24","60fece35afedb0bdd821592a","svTrial","survey",32,378764,"0.0-2.0-30.0","65553732575bb29198a888d7","65565aa0fcef5629d30d3b34",6,"11733","Okinawa_large_pos_5_2.jpg",NA,NA,NA,NA,NA,NA,NA,NA,NA,NA,NA,NA,NA,NA,NA,NA,"[]","middle",1,"sch",5,24,2,3,2,2,3,1,"30507","45","female","woman","","caucasian","","Yes","1 year","None, best of luck to you."
"25","60fece35afedb0bdd821592a","svTrial","survey",34,418585,"0.0-2.0-32.0","65553732575bb29198a888d7","65565aa0fcef5629d30d3b34",6,"23772","Okinawa_small_sch_4_1.jpg",NA,NA,NA,NA,NA,NA,NA,NA,NA,NA,NA,NA,NA,NA,NA,NA,"[]","large",1,"sch",4,25,4,3,3,3,4,1,"30507","45","female","woman","","caucasian","","Yes","1 year","None, best of luck to you."
"26","60fece35afedb0bdd821592a","svTrial","survey",35,434737,"0.0-2.0-33.0","65553732575bb29198a888d7","65565aa0fcef5629d30d3b34",6,"16145","Niigata_large_pos_12_0.jpg",NA,NA,NA,NA,NA,NA,NA,NA,NA,NA,NA,NA,NA,NA,NA,NA,"[]","large",2,"pos",12,26,4,4,3,2,4,1,"30507","45","female","woman","","caucasian","","Yes","1 year","None, best of luck to you."
"27","60fece35afedb0bdd821592a","svTrial","survey",36,440733,"0.0-2.0-34.0","65553732575bb29198a888d7","65565aa0fcef5629d30d3b34",6,"5990","Ishikawa_small_sch_3_0.jpg",NA,NA,NA,NA,NA,NA,NA,NA,NA,NA,NA,NA,NA,NA,NA,NA,"[]","large",2,"sch",3,27,1,1,1,1,1,1,"30507","45","female","woman","","caucasian","","Yes","1 year","None, best of luck to you."
"28","60fece35afedb0bdd821592a","svTrial","survey",37,453101,"0.0-2.0-35.0","65553732575bb29198a888d7","65565aa0fcef5629d30d3b34",6,"12359","Okinawa_large_sch_5_3.jpg",NA,NA,NA,NA,NA,NA,NA,NA,NA,NA,NA,NA,NA,NA,NA,NA,"[]","small",1,"pos",5,28,4,4,4,3,4,1,"30507","45","female","woman","","caucasian","","Yes","1 year","None, best of luck to you."
"29","60fece35afedb0bdd821592a","svTrial","survey",38,466653,"0.0-2.0-36.0","65553732575bb29198a888d7","65565aa0fcef5629d30d3b34",6,"13545","Ishikawa_middle_pos_1_1.jpg",NA,NA,NA,NA,NA,NA,NA,NA,NA,NA,NA,NA,NA,NA,NA,NA,"[]","small",2,"sch",1,29,1,1,1,2,3,1,"30507","45","female","woman","","caucasian","","Yes","1 year","None, best of luck to you."
"30","60fece35afedb0bdd821592a","svTrial","survey",39,473449,"0.0-2.0-37.0","65553732575bb29198a888d7","65565aa0fcef5629d30d3b34",6,"6789","Okinawa_large_sch_12_2.jpg",NA,NA,NA,NA,NA,NA,NA,NA,NA,NA,NA,NA,NA,NA,NA,NA,"[]","large",1,"pos",12,30,1,1,1,1,1,1,"30507","45","female","woman","","caucasian","","Yes","1 year","None, best of luck to you."
"31","60fece35afedb0bdd821592a","svTrial","survey",40,479763,"0.0-2.0-38.0","65553732575bb29198a888d7","65565aa0fcef5629d30d3b34",6,"6306","Akita_large_sch_12_2.jpg",NA,NA,NA,NA,NA,NA,NA,NA,NA,NA,NA,NA,NA,NA,NA,NA,"[]","small",2,"pos",12,31,1,1,1,1,1,1,"30507","45","female","woman","","caucasian","","Yes","1 year","None, best of luck to you."
"32","60fece35afedb0bdd821592a","svTrial","survey",41,494216,"0.0-2.0-39.0","65553732575bb29198a888d7","65565aa0fcef5629d30d3b34",6,"14446","Akita_middle_sch_8_2.jpg",NA,NA,NA,NA,NA,NA,NA,NA,NA,NA,NA,NA,NA,NA,NA,NA,"[]","large",2,"sch",8,32,2,2,1,1,2,1,"30507","45","female","woman","","caucasian","","Yes","1 year","None, best of luck to you."
"33","60fece35afedb0bdd821592a","svTrial","survey",42,510991,"0.0-2.0-40.0","65553732575bb29198a888d7","65565aa0fcef5629d30d3b34",6,"16764","Okinawa_middle_pos_3_2.jpg",NA,NA,NA,NA,NA,NA,NA,NA,NA,NA,NA,NA,NA,NA,NA,NA,"[]","middle",1,"sch",3,33,5,5,3,3,4,1,"30507","45","female","woman","","caucasian","","Yes","1 year","None, best of luck to you."
"34","60fece35afedb0bdd821592a","svTrial","survey",43,527906,"0.0-2.0-41.0","65553732575bb29198a888d7","65565aa0fcef5629d30d3b34",6,"16908","Niigata_large_pos_11_2.jpg",NA,NA,NA,NA,NA,NA,NA,NA,NA,NA,NA,NA,NA,NA,NA,NA,"[]","large",2,"sch",11,34,4,5,4,3,4,1,"30507","45","female","woman","","caucasian","","Yes","1 year","None, best of luck to you."
"35","60fece35afedb0bdd821592a","svTrial","survey",44,538250,"0.0-2.0-42.0","65553732575bb29198a888d7","65565aa0fcef5629d30d3b34",6,"10336","Ishikawa_large_sch_3_1.jpg",NA,NA,NA,NA,NA,NA,NA,NA,NA,NA,NA,NA,NA,NA,NA,NA,"[]","middle",2,"pos",3,35,1,2,1,2,2,1,"30507","45","female","woman","","caucasian","","Yes","1 year","None, best of luck to you."
"36","60fece35afedb0bdd821592a","svTrial","survey",45,550662,"0.0-2.0-43.0","65553732575bb29198a888d7","65565aa0fcef5629d30d3b34",6,"12405","Okinawa_large_pos_2_0.jpg",NA,NA,NA,NA,NA,NA,NA,NA,NA,NA,NA,NA,NA,NA,NA,NA,"[]","small",1,"sch",2,36,2,2,2,2,3,1,"30507","45","female","woman","","caucasian","","Yes","1 year","None, best of luck to you."
"37","60fece35afedb0bdd821592a","svTrial","survey",46,565563,"0.0-2.0-44.0","65553732575bb29198a888d7","65565aa0fcef5629d30d3b34",6,"14895","Ishikawa_large_sch_10_1.jpg",NA,NA,NA,NA,NA,NA,NA,NA,NA,NA,NA,NA,NA,NA,NA,NA,"[]","middle",2,"pos",10,37,2,2,NA,2,2,1,"30507","45","female","woman","","caucasian","","Yes","1 year","None, best of luck to you."
"38","60fece35afedb0bdd821592a","svTrial","survey",47,572132,"0.0-2.0-45.0","65553732575bb29198a888d7","65565aa0fcef5629d30d3b34",6,"6561","Hokkaido_large_sch_8_3.jpg",NA,NA,NA,NA,NA,NA,NA,NA,NA,NA,NA,NA,NA,NA,NA,NA,"[]","large",1,"pos",8,38,1,1,1,1,1,1,"30507","45","female","woman","","caucasian","","Yes","1 year","None, best of luck to you."
"39","60fece35afedb0bdd821592a","svTrial","survey",48,579844,"0.0-2.0-46.0","65553732575bb29198a888d7","65565aa0fcef5629d30d3b34",6,"7703","Akita_large_pos_7_3.jpg",NA,NA,NA,NA,NA,NA,NA,NA,NA,NA,NA,NA,NA,NA,NA,NA,"[]","large",2,"sch",7,39,2,2,2,2,2,1,"30507","45","female","woman","","caucasian","","Yes","1 year","None, best of luck to you."
"40","60fece35afedb0bdd821592a","svTrial","survey",49,589350,"0.0-2.0-47.0","65553732575bb29198a888d7","65565aa0fcef5629d30d3b34",6,"9500","Okinawa_middle_sch_1_2.jpg",NA,NA,NA,NA,NA,NA,NA,NA,NA,NA,NA,NA,NA,NA,NA,NA,"[]","small",1,"sch",1,40,2,2,2,2,2,1,"30507","45","female","woman","","caucasian","","Yes","1 year","None, best of luck to you."
"41","60fece35afedb0bdd821592a","svTrial","survey",50,601697,"0.0-2.0-48.0","65553732575bb29198a888d7","65565aa0fcef5629d30d3b34",6,"12339","Ishikawa_large_pos_2_2.jpg",NA,NA,NA,NA,NA,NA,NA,NA,NA,NA,NA,NA,NA,NA,NA,NA,"[]","large",2,"pos",2,41,2,3,2,3,3,1,"30507","45","female","woman","","caucasian","","Yes","1 year","None, best of luck to you."
"42","60fece35afedb0bdd821592a","svTrial","survey",51,616164,"0.0-2.0-49.0","65553732575bb29198a888d7","65565aa0fcef5629d30d3b34",6,"14458","Niigata_middle_sch_4_0.jpg",NA,NA,NA,NA,NA,NA,NA,NA,NA,NA,NA,NA,NA,NA,NA,NA,"[]","middle",2,"sch",4,42,2,2,2,2,3,1,"30507","45","female","woman","","caucasian","","Yes","1 year","None, best of luck to you."
"43","60fece35afedb0bdd821592a","svTrial","survey",52,628959,"0.0-2.0-50.0","65553732575bb29198a888d7","65565aa0fcef5629d30d3b34",6,"12785","Tokyo_middle_pos_6_1.jpg",NA,NA,NA,NA,NA,NA,NA,NA,NA,NA,NA,NA,NA,NA,NA,NA,"[]","large",1,"pos",6,43,4,3,3,3,3,1,"30507","45","female","woman","","caucasian","","Yes","1 year","None, best of luck to you."
"44","60fece35afedb0bdd821592a","svTrial","survey",53,641610,"0.0-2.0-51.0","65553732575bb29198a888d7","65565aa0fcef5629d30d3b34",6,"12644","Ishikawa_small_pos_4_2.jpg",NA,NA,NA,NA,NA,NA,NA,NA,NA,NA,NA,NA,NA,NA,NA,NA,"[]","small",2,"sch",4,44,2,1,1,1,1,1,"30507","45","female","woman","","caucasian","","Yes","1 year","None, best of luck to you."
"45","60fece35afedb0bdd821592a","svTrial","survey",54,658597,"0.0-2.0-52.0","65553732575bb29198a888d7","65565aa0fcef5629d30d3b34",6,"16981","Okinawa_middle_pos_1_2.jpg",NA,NA,NA,NA,NA,NA,NA,NA,NA,NA,NA,NA,NA,NA,NA,NA,"[]","middle",1,"pos",1,45,4,3,4,3,3,1,"30507","45","female","woman","","caucasian","","Yes","1 year","None, best of luck to you."
"46","60fece35afedb0bdd821592a","svTrial","survey",55,672183,"0.0-2.0-53.0","65553732575bb29198a888d7","65565aa0fcef5629d30d3b34",6,"13580","Hokkaido_large_pos_9_1.jpg",NA,NA,NA,NA,NA,NA,NA,NA,NA,NA,NA,NA,NA,NA,NA,NA,"[]","small",1,"sch",9,46,5,4,5,4,4,1,"30507","45","female","woman","","caucasian","","Yes","1 year","None, best of luck to you."
"47","60fece35afedb0bdd821592a","svTrial","survey",56,679093,"0.0-2.0-54.0","65553732575bb29198a888d7","65565aa0fcef5629d30d3b34",6,"6900","Okinawa_small_sch_1_2.jpg",NA,NA,NA,NA,NA,NA,NA,NA,NA,NA,NA,NA,NA,NA,NA,NA,"[]","middle",1,"pos",1,47,1,1,1,1,1,1,"30507","45","female","woman","","caucasian","","Yes","1 year","None, best of luck to you."
"48","60fece35afedb0bdd821592a","svTrial","survey",57,694173,"0.0-2.0-55.0","65553732575bb29198a888d7","65565aa0fcef5629d30d3b34",6,"15073","Niigata_large_pos_5_1.jpg",NA,NA,NA,NA,NA,NA,NA,NA,NA,NA,NA,NA,NA,NA,NA,NA,"[]","small",2,"sch",5,48,2,2,1,1,1,1,"30507","45","female","woman","","caucasian","","Yes","1 year","None, best of luck to you."
