"","subject_id","task","trial_type","trial_index","time_elapsed","internal_node_id","study_id","session_id","group","rt","stimulus","width","height","webaudio","browser","browser_version","mobile","os","fullscreen","vsync_rate","webcam","microphone","success","timeout","failed_images","failed_audio","failed_video","accuracy","size","culture","loct","number","document.id","ambiguous","objects","invisible","chaos","complex","passedChecks","zipcode","age","gender","gender-self-describe","ethnicity","ethnicity-self-describe","outsideUS","outsideUS_years","surveyComments"
"1","60fe009fbe876ea55251cdfd","svTrial","survey",8,363673,"0.0-2.0-6.0","65553732575bb29198a888d7","6556596a589c16e683d9263c",6,"71563","Okinawa_small_sch_1_1.jpg",NA,NA,NA,NA,NA,NA,NA,NA,NA,NA,NA,NA,NA,NA,NA,NA,"[]","middle",1,"pos",1,1,4,4,4,4,5,1,"","","man","","caucasian","","No","",""
"2","60fe009fbe876ea55251cdfd","svTrial","survey",9,406754,"0.0-2.0-7.0","65553732575bb29198a888d7","6556596a589c16e683d9263c",6,"43063","Okinawa_large_pos_9_1.jpg",NA,NA,NA,NA,NA,NA,NA,NA,NA,NA,NA,NA,NA,NA,NA,NA,"[]","small",1,"sch",9,2,4,5,2,2,3,1,"","","man","","caucasian","","No","",""
"3","60fe009fbe876ea55251cdfd","svTrial","survey",11,449592,"0.0-2.0-9.0","65553732575bb29198a888d7","6556596a589c16e683d9263c",6,"35148","Okinawa_large_sch_12_0.jpg",NA,NA,NA,NA,NA,NA,NA,NA,NA,NA,NA,NA,NA,NA,NA,NA,"[]","large",1,"pos",12,3,5,2,5,4,2,1,"","","man","","caucasian","","No","",""
"4","60fe009fbe876ea55251cdfd","svTrial","survey",12,490147,"0.0-2.0-10.0","65553732575bb29198a888d7","6556596a589c16e683d9263c",6,"40542","Toyama_large_sch_10_3.jpg",NA,NA,NA,NA,NA,NA,NA,NA,NA,NA,NA,NA,NA,NA,NA,NA,"[]","large",2,"pos",10,4,4,3,2,2,2,1,"","","man","","caucasian","","No","",""
"5","60fe009fbe876ea55251cdfd","svTrial","survey",13,519740,"0.0-2.0-11.0","65553732575bb29198a888d7","6556596a589c16e683d9263c",6,"29580","Kanagawa_large_sch_12_3.jpg",NA,NA,NA,NA,NA,NA,NA,NA,NA,NA,NA,NA,NA,NA,NA,NA,"[]","large",1,"pos",12,5,5,5,5,5,1,1,"","","man","","caucasian","","No","",""
"6","60fe009fbe876ea55251cdfd","svTrial","survey",14,554068,"0.0-2.0-12.0","65553732575bb29198a888d7","6556596a589c16e683d9263c",6,"34315","Kanagawa_middle_pos_1_0.jpg",NA,NA,NA,NA,NA,NA,NA,NA,NA,NA,NA,NA,NA,NA,NA,NA,"[]","small",1,"pos",1,6,3,2,4,4,1,1,"","","man","","caucasian","","No","",""
"7","60fe009fbe876ea55251cdfd","svTrial","survey",15,581694,"0.0-2.0-13.0","65553732575bb29198a888d7","6556596a589c16e683d9263c",6,"27612","Hokkaido_large_sch_5_2.jpg",NA,NA,NA,NA,NA,NA,NA,NA,NA,NA,NA,NA,NA,NA,NA,NA,"[]","middle",1,"pos",5,7,2,2,1,1,2,1,"","","man","","caucasian","","No","",""
"8","60fe009fbe876ea55251cdfd","svTrial","survey",16,618561,"0.0-2.0-14.0","65553732575bb29198a888d7","6556596a589c16e683d9263c",6,"36842","Akita_middle_pos_1_1.jpg",NA,NA,NA,NA,NA,NA,NA,NA,NA,NA,NA,NA,NA,NA,NA,NA,"[]","middle",2,"pos",1,8,5,5,2,1,4,1,"","","man","","caucasian","","No","",""
"9","60fe009fbe876ea55251cdfd","svTrial","survey",17,653920,"0.0-2.0-15.0","65553732575bb29198a888d7","6556596a589c16e683d9263c",6,"35345","Akita_middle_sch_8_3.jpg",NA,NA,NA,NA,NA,NA,NA,NA,NA,NA,NA,NA,NA,NA,NA,NA,"[]","large",2,"sch",8,9,4,3,3,3,2,1,"","","man","","caucasian","","No","",""
"10","60fe009fbe876ea55251cdfd","svTrial","survey",18,760324,"0.0-2.0-16.0","65553732575bb29198a888d7","6556596a589c16e683d9263c",6,"106390","Akita_large_pos_10_0.jpg",NA,NA,NA,NA,NA,NA,NA,NA,NA,NA,NA,NA,NA,NA,NA,NA,"[]","middle",2,"pos",10,10,4,4,1,1,3,1,"","","man","","caucasian","","No","",""
"11","60fe009fbe876ea55251cdfd","svTrial","survey",19,789782,"0.0-2.0-17.0","65553732575bb29198a888d7","6556596a589c16e683d9263c",6,"29447","Niigata_large_pos_11_3.jpg",NA,NA,NA,NA,NA,NA,NA,NA,NA,NA,NA,NA,NA,NA,NA,NA,"[]","large",2,"sch",11,11,2,2,1,4,4,1,"","","man","","caucasian","","No","",""
"12","60fe009fbe876ea55251cdfd","svTrial","survey",20,867344,"0.0-2.0-18.0","65553732575bb29198a888d7","6556596a589c16e683d9263c",6,"77549","Okinawa_middle_pos_3_0.jpg",NA,NA,NA,NA,NA,NA,NA,NA,NA,NA,NA,NA,NA,NA,NA,NA,"[]","middle",1,"sch",3,12,4,5,1,1,3,1,"","","man","","caucasian","","No","",""
"13","60fe009fbe876ea55251cdfd","svTrial","survey",21,893373,"0.0-2.0-19.0","65553732575bb29198a888d7","6556596a589c16e683d9263c",6,"26018","Akita_large_sch_12_0.jpg",NA,NA,NA,NA,NA,NA,NA,NA,NA,NA,NA,NA,NA,NA,NA,NA,"[]","small",2,"pos",12,13,1,1,1,1,2,1,"","","man","","caucasian","","No","",""
"14","60fe009fbe876ea55251cdfd","svTrial","survey",22,920808,"0.0-2.0-20.0","65553732575bb29198a888d7","6556596a589c16e683d9263c",6,"27424","Ishikawa_small_pos_4_3.jpg",NA,NA,NA,NA,NA,NA,NA,NA,NA,NA,NA,NA,NA,NA,NA,NA,"[]","small",2,"sch",4,14,2,2,1,1,2,1,"","","man","","caucasian","","No","",""
"15","60fe009fbe876ea55251cdfd","svTrial","survey",23,952902,"0.0-2.0-21.0","65553732575bb29198a888d7","6556596a589c16e683d9263c",6,"32079","Toyama_large_pos_6_3.jpg",NA,NA,NA,NA,NA,NA,NA,NA,NA,NA,NA,NA,NA,NA,NA,NA,"[]","large",2,"pos",6,15,3,1,1,2,1,1,"","","man","","caucasian","","No","",""
"16","60fe009fbe876ea55251cdfd","svTrial","survey",24,1020008,"0.0-2.0-22.0","65553732575bb29198a888d7","6556596a589c16e683d9263c",6,"67093","Niigata_large_sch_7_0.jpg",NA,NA,NA,NA,NA,NA,NA,NA,NA,NA,NA,NA,NA,NA,NA,NA,"[]","small",2,"pos",7,16,3,4,2,3,2,1,"","","man","","caucasian","","No","",""
"17","60fe009fbe876ea55251cdfd","svTrial","survey",25,1058730,"0.0-2.0-23.0","65553732575bb29198a888d7","6556596a589c16e683d9263c",6,"38708","Tokyo_middle_sch_2_1.jpg",NA,NA,NA,NA,NA,NA,NA,NA,NA,NA,NA,NA,NA,NA,NA,NA,"[]","middle",1,"pos",2,17,4,4,4,2,2,1,"","","man","","caucasian","","No","",""
"18","60fe009fbe876ea55251cdfd","svTrial","survey",26,1123728,"0.0-2.0-24.0","65553732575bb29198a888d7","6556596a589c16e683d9263c",6,"64986","Akita_large_pos_5_2.jpg",NA,NA,NA,NA,NA,NA,NA,NA,NA,NA,NA,NA,NA,NA,NA,NA,"[]","large",2,"pos",5,18,3,1,2,2,3,1,"","","man","","caucasian","","No","",""
"19","60fe009fbe876ea55251cdfd","svTrial","survey",27,1180892,"0.0-2.0-25.0","65553732575bb29198a888d7","6556596a589c16e683d9263c",6,"57150","Hokkaido_large_pos_10_1.jpg",NA,NA,NA,NA,NA,NA,NA,NA,NA,NA,NA,NA,NA,NA,NA,NA,"[]","small",1,"sch",10,19,2,1,1,1,1,1,"","","man","","caucasian","","No","",""
"20","60fe009fbe876ea55251cdfd","svTrial","survey",28,4762060,"0.0-2.0-26.0","65553732575bb29198a888d7","6556596a589c16e683d9263c",6,"760107","Hokkaido_large_sch_8_0.jpg",NA,NA,NA,NA,NA,NA,NA,NA,NA,NA,NA,NA,NA,NA,NA,NA,"[]","large",1,"pos",8,20,NA,NA,NA,NA,NA,1,"","","man","","caucasian","","No","",""
"21","60fe009fbe876ea55251cdfd","svTrial","survey",29,4763722,"0.0-2.0-27.0","65553732575bb29198a888d7","6556596a589c16e683d9263c",6,"1630","Okinawa_middle_pos_1_1.jpg",NA,NA,NA,NA,NA,NA,NA,NA,NA,NA,NA,NA,NA,NA,NA,NA,"[]","middle",1,"pos",1,21,NA,NA,NA,NA,NA,1,"","","man","","caucasian","","No","",""
"22","60fe009fbe876ea55251cdfd","svTrial","survey",30,4764010,"0.0-2.0-28.0","65553732575bb29198a888d7","6556596a589c16e683d9263c",6,"272","Okinawa_middle_sch_4_1.jpg",NA,NA,NA,NA,NA,NA,NA,NA,NA,NA,NA,NA,NA,NA,NA,NA,"[]","small",1,"pos",4,22,NA,NA,NA,NA,NA,1,"","","man","","caucasian","","No","",""
"23","60fe009fbe876ea55251cdfd","svTrial","survey",31,4764677,"0.0-2.0-29.0","65553732575bb29198a888d7","6556596a589c16e683d9263c",6,"637","Hokkaido_small_pos_2_0.jpg",NA,NA,NA,NA,NA,NA,NA,NA,NA,NA,NA,NA,NA,NA,NA,NA,"[]","middle",1,"sch",2,23,NA,NA,NA,NA,NA,1,"","","man","","caucasian","","No","",""
"24","60fe009fbe876ea55251cdfd","svTrial","survey",32,4765048,"0.0-2.0-30.0","65553732575bb29198a888d7","6556596a589c16e683d9263c",6,"360","Ishikawa_small_sch_3_3.jpg",NA,NA,NA,NA,NA,NA,NA,NA,NA,NA,NA,NA,NA,NA,NA,NA,"[]","large",2,"sch",3,24,NA,NA,NA,NA,NA,1,"","","man","","caucasian","","No","",""
"25","60fe009fbe876ea55251cdfd","svTrial","survey",34,4768873,"0.0-2.0-32.0","65553732575bb29198a888d7","6556596a589c16e683d9263c",6,"1472","Ishikawa_large_pos_2_0.jpg",NA,NA,NA,NA,NA,NA,NA,NA,NA,NA,NA,NA,NA,NA,NA,NA,"[]","large",2,"pos",2,25,NA,NA,NA,NA,NA,1,"","","man","","caucasian","","No","",""
"26","60fe009fbe876ea55251cdfd","svTrial","survey",35,4770288,"0.0-2.0-33.0","65553732575bb29198a888d7","6556596a589c16e683d9263c",6,"1404","Niigata_large_pos_12_2.jpg",NA,NA,NA,NA,NA,NA,NA,NA,NA,NA,NA,NA,NA,NA,NA,NA,"[]","large",2,"pos",12,26,NA,NA,NA,NA,NA,1,"","","man","","caucasian","","No","",""
"27","60fe009fbe876ea55251cdfd","svTrial","survey",36,4771364,"0.0-2.0-34.0","65553732575bb29198a888d7","6556596a589c16e683d9263c",6,"1067","Okinawa_small_sch_4_3.jpg",NA,NA,NA,NA,NA,NA,NA,NA,NA,NA,NA,NA,NA,NA,NA,NA,"[]","large",1,"sch",4,27,NA,NA,NA,NA,NA,1,"","","man","","caucasian","","No","",""
"28","60fe009fbe876ea55251cdfd","svTrial","survey",37,4771646,"0.0-2.0-35.0","65553732575bb29198a888d7","6556596a589c16e683d9263c",6,"264","Tokyo_large_sch_2_3.jpg",NA,NA,NA,NA,NA,NA,NA,NA,NA,NA,NA,NA,NA,NA,NA,NA,"[]","large",1,"pos",2,28,NA,NA,NA,NA,NA,1,"","","man","","caucasian","","No","",""
"29","60fe009fbe876ea55251cdfd","svTrial","survey",38,4771923,"0.0-2.0-36.0","65553732575bb29198a888d7","6556596a589c16e683d9263c",6,"261","Okinawa_large_pos_3_2.jpg",NA,NA,NA,NA,NA,NA,NA,NA,NA,NA,NA,NA,NA,NA,NA,NA,"[]","large",1,"sch",3,29,NA,NA,NA,NA,NA,1,"","","man","","caucasian","","No","",""
"30","60fe009fbe876ea55251cdfd","svTrial","survey",39,4773186,"0.0-2.0-37.0","65553732575bb29198a888d7","6556596a589c16e683d9263c",6,"1255","Niigata_large_pos_5_0.jpg",NA,NA,NA,NA,NA,NA,NA,NA,NA,NA,NA,NA,NA,NA,NA,NA,"[]","small",2,"sch",5,30,NA,NA,NA,NA,NA,1,"","","man","","caucasian","","No","",""
"31","60fe009fbe876ea55251cdfd","svTrial","survey",40,4773795,"0.0-2.0-38.0","65553732575bb29198a888d7","6556596a589c16e683d9263c",6,"595","Toyama_large_pos_1_3.jpg",NA,NA,NA,NA,NA,NA,NA,NA,NA,NA,NA,NA,NA,NA,NA,NA,"[]","large",2,"sch",1,31,NA,NA,NA,NA,NA,1,"","","man","","caucasian","","No","",""
"32","60fe009fbe876ea55251cdfd","svTrial","survey",41,4774996,"0.0-2.0-39.0","65553732575bb29198a888d7","6556596a589c16e683d9263c",6,"1191","Niigata_middle_sch_4_1.jpg",NA,NA,NA,NA,NA,NA,NA,NA,NA,NA,NA,NA,NA,NA,NA,NA,"[]","middle",2,"sch",4,32,NA,NA,NA,NA,NA,1,"","","man","","caucasian","","No","",""
"33","60fe009fbe876ea55251cdfd","svTrial","survey",42,4776231,"0.0-2.0-40.0","65553732575bb29198a888d7","6556596a589c16e683d9263c",6,"1226","Niigata_small_pos_2_0.jpg",NA,NA,NA,NA,NA,NA,NA,NA,NA,NA,NA,NA,NA,NA,NA,NA,"[]","large",2,"sch",2,33,NA,NA,NA,NA,NA,1,"","","man","","caucasian","","No","",""
"34","60fe009fbe876ea55251cdfd","svTrial","survey",43,4776576,"0.0-2.0-41.0","65553732575bb29198a888d7","6556596a589c16e683d9263c",6,"334","Okinawa_large_sch_5_0.jpg",NA,NA,NA,NA,NA,NA,NA,NA,NA,NA,NA,NA,NA,NA,NA,NA,"[]","small",1,"pos",5,34,NA,NA,NA,NA,NA,1,"","","man","","caucasian","","No","",""
"35","60fe009fbe876ea55251cdfd","svTrial","survey",44,4777582,"0.0-2.0-42.0","65553732575bb29198a888d7","6556596a589c16e683d9263c",6,"996","Toyama_large_pos_11_3.jpg",NA,NA,NA,NA,NA,NA,NA,NA,NA,NA,NA,NA,NA,NA,NA,NA,"[]","small",2,"sch",11,35,NA,NA,NA,NA,NA,1,"","","man","","caucasian","","No","",""
"36","60fe009fbe876ea55251cdfd","svTrial","survey",45,4778799,"0.0-2.0-43.0","65553732575bb29198a888d7","6556596a589c16e683d9263c",6,"1209","Hokkaido_large_pos_9_2.jpg",NA,NA,NA,NA,NA,NA,NA,NA,NA,NA,NA,NA,NA,NA,NA,NA,"[]","small",1,"sch",9,36,NA,NA,NA,NA,NA,1,"","","man","","caucasian","","No","",""
"37","60fe009fbe876ea55251cdfd","svTrial","survey",46,4779018,"0.0-2.0-44.0","65553732575bb29198a888d7","6556596a589c16e683d9263c",6,"208","Ishikawa_large_sch_10_0.jpg",NA,NA,NA,NA,NA,NA,NA,NA,NA,NA,NA,NA,NA,NA,NA,NA,"[]","middle",2,"pos",10,37,NA,NA,NA,NA,NA,1,"","","man","","caucasian","","No","",""
"38","60fe009fbe876ea55251cdfd","svTrial","survey",47,4779568,"0.0-2.0-45.0","65553732575bb29198a888d7","6556596a589c16e683d9263c",6,"541","Ishikawa_large_sch_3_1.jpg",NA,NA,NA,NA,NA,NA,NA,NA,NA,NA,NA,NA,NA,NA,NA,NA,"[]","middle",2,"pos",3,38,NA,NA,NA,NA,NA,1,"","","man","","caucasian","","No","",""
"39","60fe009fbe876ea55251cdfd","svTrial","survey",48,4780782,"0.0-2.0-46.0","65553732575bb29198a888d7","6556596a589c16e683d9263c",6,"1204","Ishikawa_middle_pos_1_0.jpg",NA,NA,NA,NA,NA,NA,NA,NA,NA,NA,NA,NA,NA,NA,NA,NA,"[]","small",2,"sch",1,39,NA,NA,NA,NA,NA,1,"","","man","","caucasian","","No","",""
"40","60fe009fbe876ea55251cdfd","svTrial","survey",49,4781474,"0.0-2.0-47.0","65553732575bb29198a888d7","6556596a589c16e683d9263c",6,"682","Okinawa_large_pos_5_1.jpg",NA,NA,NA,NA,NA,NA,NA,NA,NA,NA,NA,NA,NA,NA,NA,NA,"[]","middle",1,"sch",5,40,NA,NA,NA,NA,NA,1,"","","man","","caucasian","","No","",""
"41","60fe009fbe876ea55251cdfd","svTrial","survey",50,4782109,"0.0-2.0-48.0","65553732575bb29198a888d7","6556596a589c16e683d9263c",6,"626","Hokkaido_middle_pos_3_0.jpg",NA,NA,NA,NA,NA,NA,NA,NA,NA,NA,NA,NA,NA,NA,NA,NA,"[]","middle",1,"pos",3,41,NA,NA,NA,NA,NA,1,"","","man","","caucasian","","No","",""
"42","60fe009fbe876ea55251cdfd","svTrial","survey",51,4782681,"0.0-2.0-49.0","65553732575bb29198a888d7","6556596a589c16e683d9263c",6,"563","Akita_middle_pos_5_3.jpg",NA,NA,NA,NA,NA,NA,NA,NA,NA,NA,NA,NA,NA,NA,NA,NA,"[]","middle",2,"sch",5,42,NA,NA,NA,NA,NA,1,"","","man","","caucasian","","No","",""
"43","60fe009fbe876ea55251cdfd","svTrial","survey",52,4783562,"0.0-2.0-50.0","65553732575bb29198a888d7","6556596a589c16e683d9263c",6,"871","Tokyo_middle_pos_6_1.jpg",NA,NA,NA,NA,NA,NA,NA,NA,NA,NA,NA,NA,NA,NA,NA,NA,"[]","large",1,"pos",6,43,NA,NA,NA,NA,NA,1,"","","man","","caucasian","","No","",""
"44","60fe009fbe876ea55251cdfd","svTrial","survey",53,4785802,"0.0-2.0-51.0","65553732575bb29198a888d7","6556596a589c16e683d9263c",6,"2227","Hokkaido_middle_sch_4_2.jpg",NA,NA,NA,NA,NA,NA,NA,NA,NA,NA,NA,NA,NA,NA,NA,NA,"[]","middle",1,"sch",4,44,NA,NA,NA,NA,NA,1,"","","man","","caucasian","","No","",""
"45","60fe009fbe876ea55251cdfd","svTrial","survey",54,4786649,"0.0-2.0-52.0","65553732575bb29198a888d7","6556596a589c16e683d9263c",6,"835","Okinawa_large_pos_2_0.jpg",NA,NA,NA,NA,NA,NA,NA,NA,NA,NA,NA,NA,NA,NA,NA,NA,"[]","small",1,"sch",2,45,NA,NA,NA,NA,NA,1,"","","man","","caucasian","","No","",""
"46","60fe009fbe876ea55251cdfd","svTrial","survey",55,4788608,"0.0-2.0-53.0","65553732575bb29198a888d7","6556596a589c16e683d9263c",6,"1947","Okinawa_middle_sch_1_2.jpg",NA,NA,NA,NA,NA,NA,NA,NA,NA,NA,NA,NA,NA,NA,NA,NA,"[]","small",1,"sch",1,46,NA,NA,NA,NA,NA,1,"","","man","","caucasian","","No","",""
"47","60fe009fbe876ea55251cdfd","svTrial","survey",56,4789604,"0.0-2.0-54.0","65553732575bb29198a888d7","6556596a589c16e683d9263c",6,"987","Akita_large_pos_7_0.jpg",NA,NA,NA,NA,NA,NA,NA,NA,NA,NA,NA,NA,NA,NA,NA,NA,"[]","large",2,"sch",7,47,NA,NA,NA,NA,NA,1,"","","man","","caucasian","","No","",""
"48","60fe009fbe876ea55251cdfd","svTrial","survey",57,4791372,"0.0-2.0-55.0","65553732575bb29198a888d7","6556596a589c16e683d9263c",6,"1756","Toyama_middle_sch_8_2.jpg",NA,NA,NA,NA,NA,NA,NA,NA,NA,NA,NA,NA,NA,NA,NA,NA,"[]","middle",2,"pos",8,48,NA,NA,NA,NA,NA,1,"","","man","","caucasian","","No","",""
