"","subject_id","task","trial_type","trial_index","time_elapsed","internal_node_id","study_id","session_id","group","rt","stimulus","width","height","webaudio","browser","browser_version","mobile","os","fullscreen","vsync_rate","webcam","microphone","success","timeout","failed_images","failed_audio","failed_video","accuracy","size","culture","loct","number","document.id","ambiguous","objects","invisible","chaos","complex","passedChecks","zipcode","age","sex","gender","gender-self-describe","ethnicity","ethnicity-self-describe","outsideUS","outsideUS_years","surveyComments"
"1","61003bb158741c6a1d79903b","svTrial","survey",8,143413,"0.0-2.0-6.0","65553732575bb29198a888d7","65565b867ce5630ac62d7077",1,"34249","Hokkaido_large_sch_12_1.jpg",NA,NA,NA,NA,NA,NA,NA,NA,NA,NA,NA,NA,NA,NA,NA,NA,"[]","small",1,"sch",12,1,2,1,3,1,1,1,"75035","50","female","woman","","south-asian","","Yes","25",""
"2","61003bb158741c6a1d79903b","svTrial","survey",9,167028,"0.0-2.0-7.0","65553732575bb29198a888d7","65565b867ce5630ac62d7077",1,"23591","Okinawa_large_pos_12_3.jpg",NA,NA,NA,NA,NA,NA,NA,NA,NA,NA,NA,NA,NA,NA,NA,NA,"[]","large",1,"sch",12,2,3,1,4,3,2,1,"75035","50","female","woman","","south-asian","","Yes","25",""
"3","61003bb158741c6a1d79903b","svTrial","survey",10,188549,"0.0-2.0-8.0","65553732575bb29198a888d7","65565b867ce5630ac62d7077",1,"21494","Niigata_large_sch_11_3.jpg",NA,NA,NA,NA,NA,NA,NA,NA,NA,NA,NA,NA,NA,NA,NA,NA,"[]","middle",2,"pos",11,3,5,2,4,3,2,1,"75035","50","female","woman","","south-asian","","Yes","25",""
"4","61003bb158741c6a1d79903b","svTrial","survey",11,210081,"0.0-2.0-9.0","65553732575bb29198a888d7","65565b867ce5630ac62d7077",1,"21513","Niigata_large_sch_2_1.jpg",NA,NA,NA,NA,NA,NA,NA,NA,NA,NA,NA,NA,NA,NA,NA,NA,"[]","middle",2,"sch",2,4,5,3,2,3,2,1,"75035","50","female","woman","","south-asian","","Yes","25",""
"5","61003bb158741c6a1d79903b","svTrial","survey",12,226183,"0.0-2.0-10.0","65553732575bb29198a888d7","65565b867ce5630ac62d7077",1,"16080","Kanagawa_large_pos_12_0.jpg",NA,NA,NA,NA,NA,NA,NA,NA,NA,NA,NA,NA,NA,NA,NA,NA,"[]","middle",1,"sch",12,5,1,2,4,2,2,1,"75035","50","female","woman","","south-asian","","Yes","25",""
"6","61003bb158741c6a1d79903b","svTrial","survey",13,236503,"0.0-2.0-11.0","65553732575bb29198a888d7","65565b867ce5630ac62d7077",1,"10296","Toyama_middle_sch_5_1.jpg",NA,NA,NA,NA,NA,NA,NA,NA,NA,NA,NA,NA,NA,NA,NA,NA,"[]","middle",2,"sch",5,6,5,4,4,3,3,1,"75035","50","female","woman","","south-asian","","Yes","25",""
"7","61003bb158741c6a1d79903b","svTrial","survey",14,251901,"0.0-2.0-12.0","65553732575bb29198a888d7","65565b867ce5630ac62d7077",1,"15373","Niigata_large_sch_1_2.jpg",NA,NA,NA,NA,NA,NA,NA,NA,NA,NA,NA,NA,NA,NA,NA,NA,"[]","middle",2,"pos",1,7,3,3,2,4,3,1,"75035","50","female","woman","","south-asian","","Yes","25",""
"8","61003bb158741c6a1d79903b","svTrial","survey",15,263421,"0.0-2.0-13.0","65553732575bb29198a888d7","65565b867ce5630ac62d7077",1,"11498","Kanagawa_middle_sch_6_2.jpg",NA,NA,NA,NA,NA,NA,NA,NA,NA,NA,NA,NA,NA,NA,NA,NA,"[]","small",1,"sch",6,8,5,4,2,4,2,1,"75035","50","female","woman","","south-asian","","Yes","25",""
"9","61003bb158741c6a1d79903b","svTrial","survey",16,275157,"0.0-2.0-14.0","65553732575bb29198a888d7","65565b867ce5630ac62d7077",1,"11718","Hokkaido_large_sch_1_3.jpg",NA,NA,NA,NA,NA,NA,NA,NA,NA,NA,NA,NA,NA,NA,NA,NA,"[]","large",1,"sch",1,9,1,1,1,1,3,1,"75035","50","female","woman","","south-asian","","Yes","25",""
"10","61003bb158741c6a1d79903b","svTrial","survey",17,287499,"0.0-2.0-15.0","65553732575bb29198a888d7","65565b867ce5630ac62d7077",1,"12326","Niigata_small_sch_1_3.jpg",NA,NA,NA,NA,NA,NA,NA,NA,NA,NA,NA,NA,NA,NA,NA,NA,"[]","middle",2,"sch",1,10,2,2,4,2,4,1,"75035","50","female","woman","","south-asian","","Yes","25",""
"11","61003bb158741c6a1d79903b","svTrial","survey",18,297664,"0.0-2.0-16.0","65553732575bb29198a888d7","65565b867ce5630ac62d7077",1,"10150","Hokkaido_large_pos_3_2.jpg",NA,NA,NA,NA,NA,NA,NA,NA,NA,NA,NA,NA,NA,NA,NA,NA,"[]","middle",1,"pos",3,11,4,4,4,3,3,1,"75035","50","female","woman","","south-asian","","Yes","25",""
"12","61003bb158741c6a1d79903b","svTrial","survey",19,306424,"0.0-2.0-17.0","65553732575bb29198a888d7","65565b867ce5630ac62d7077",1,"8744","Akita_small_sch_4_2.jpg",NA,NA,NA,NA,NA,NA,NA,NA,NA,NA,NA,NA,NA,NA,NA,NA,"[]","large",2,"sch",4,12,4,3,2,3,4,1,"75035","50","female","woman","","south-asian","","Yes","25",""
"13","61003bb158741c6a1d79903b","svTrial","survey",20,323629,"0.0-2.0-18.0","65553732575bb29198a888d7","65565b867ce5630ac62d7077",1,"17191","Niigata_large_sch_9_3.jpg",NA,NA,NA,NA,NA,NA,NA,NA,NA,NA,NA,NA,NA,NA,NA,NA,"[]","middle",2,"sch",9,13,5,5,5,5,5,1,"75035","50","female","woman","","south-asian","","Yes","25",""
"14","61003bb158741c6a1d79903b","svTrial","survey",21,336537,"0.0-2.0-19.0","65553732575bb29198a888d7","65565b867ce5630ac62d7077",1,"12887","Tokyo_large_pos_1_2.jpg",NA,NA,NA,NA,NA,NA,NA,NA,NA,NA,NA,NA,NA,NA,NA,NA,"[]","large",1,"pos",1,14,3,5,3,4,4,1,"75035","50","female","woman","","south-asian","","Yes","25",""
"15","61003bb158741c6a1d79903b","svTrial","survey",22,345732,"0.0-2.0-20.0","65553732575bb29198a888d7","65565b867ce5630ac62d7077",1,"9175","Kanagawa_small_sch_2_3.jpg",NA,NA,NA,NA,NA,NA,NA,NA,NA,NA,NA,NA,NA,NA,NA,NA,"[]","large",1,"sch",2,15,3,2,3,2,3,1,"75035","50","female","woman","","south-asian","","Yes","25",""
"16","61003bb158741c6a1d79903b","svTrial","survey",23,355631,"0.0-2.0-21.0","65553732575bb29198a888d7","65565b867ce5630ac62d7077",1,"9883","Toyama_middle_pos_8_2.jpg",NA,NA,NA,NA,NA,NA,NA,NA,NA,NA,NA,NA,NA,NA,NA,NA,"[]","middle",2,"pos",8,16,5,2,3,3,3,1,"75035","50","female","woman","","south-asian","","Yes","25",""
"17","61003bb158741c6a1d79903b","svTrial","survey",24,368622,"0.0-2.0-22.0","65553732575bb29198a888d7","65565b867ce5630ac62d7077",1,"12969","Kanagawa_middle_pos_7_1.jpg",NA,NA,NA,NA,NA,NA,NA,NA,NA,NA,NA,NA,NA,NA,NA,NA,"[]","middle",1,"sch",7,17,2,4,3,3,2,1,"75035","50","female","woman","","south-asian","","Yes","25",""
"18","61003bb158741c6a1d79903b","svTrial","survey",25,381879,"0.0-2.0-23.0","65553732575bb29198a888d7","65565b867ce5630ac62d7077",1,"13238","Toyama_large_pos_10_2.jpg",NA,NA,NA,NA,NA,NA,NA,NA,NA,NA,NA,NA,NA,NA,NA,NA,"[]","small",2,"sch",10,18,2,3,4,2,4,1,"75035","50","female","woman","","south-asian","","Yes","25",""
"19","61003bb158741c6a1d79903b","svTrial","survey",26,393251,"0.0-2.0-24.0","65553732575bb29198a888d7","65565b867ce5630ac62d7077",1,"11356","Akita_large_sch_2_3.jpg",NA,NA,NA,NA,NA,NA,NA,NA,NA,NA,NA,NA,NA,NA,NA,NA,"[]","middle",2,"sch",2,19,4,3,4,2,3,1,"75035","50","female","woman","","south-asian","","Yes","25",""
"20","61003bb158741c6a1d79903b","svTrial","survey",27,400640,"0.0-2.0-25.0","65553732575bb29198a888d7","65565b867ce5630ac62d7077",1,"7367","Hokkaido_large_pos_11_0.jpg",NA,NA,NA,NA,NA,NA,NA,NA,NA,NA,NA,NA,NA,NA,NA,NA,"[]","small",1,"pos",11,20,4,2,4,3,4,1,"75035","50","female","woman","","south-asian","","Yes","25",""
"21","61003bb158741c6a1d79903b","svTrial","survey",28,407054,"0.0-2.0-26.0","65553732575bb29198a888d7","65565b867ce5630ac62d7077",1,"6395","Toyama_small_pos_3_2.jpg",NA,NA,NA,NA,NA,NA,NA,NA,NA,NA,NA,NA,NA,NA,NA,NA,"[]","large",2,"sch",3,21,2,4,2,4,3,1,"75035","50","female","woman","","south-asian","","Yes","25",""
"22","61003bb158741c6a1d79903b","svTrial","survey",29,440161,"0.0-2.0-27.0","65553732575bb29198a888d7","65565b867ce5630ac62d7077",1,"33090","Ishikawa_large_pos_11_3.jpg",NA,NA,NA,NA,NA,NA,NA,NA,NA,NA,NA,NA,NA,NA,NA,NA,"[]","middle",2,"sch",11,22,3,2,4,2,4,1,"75035","50","female","woman","","south-asian","","Yes","25",""
"23","61003bb158741c6a1d79903b","svTrial","survey",30,447536,"0.0-2.0-28.0","65553732575bb29198a888d7","65565b867ce5630ac62d7077",1,"7358","Niigata_middle_pos_3_2.jpg",NA,NA,NA,NA,NA,NA,NA,NA,NA,NA,NA,NA,NA,NA,NA,NA,"[]","large",2,"pos",3,23,2,2,2,1,3,1,"75035","50","female","woman","","south-asian","","Yes","25",""
"24","61003bb158741c6a1d79903b","svTrial","survey",31,453220,"0.0-2.0-29.0","65553732575bb29198a888d7","65565b867ce5630ac62d7077",1,"5668","Hokkaido_middle_pos_6_2.jpg",NA,NA,NA,NA,NA,NA,NA,NA,NA,NA,NA,NA,NA,NA,NA,NA,"[]","large",1,"sch",6,24,4,2,1,3,2,1,"75035","50","female","woman","","south-asian","","Yes","25",""
"25","61003bb158741c6a1d79903b","svTrial","survey",33,475516,"0.0-2.0-31.0","65553732575bb29198a888d7","65565b867ce5630ac62d7077",1,"6509","Akita_large_pos_2_3.jpg",NA,NA,NA,NA,NA,NA,NA,NA,NA,NA,NA,NA,NA,NA,NA,NA,"[]","middle",2,"pos",2,25,3,1,3,2,3,1,"75035","50","female","woman","","south-asian","","Yes","25",""
"26","61003bb158741c6a1d79903b","svTrial","survey",34,484287,"0.0-2.0-32.0","65553732575bb29198a888d7","65565b867ce5630ac62d7077",1,"8748","Akita_middle_sch_4_0.jpg",NA,NA,NA,NA,NA,NA,NA,NA,NA,NA,NA,NA,NA,NA,NA,NA,"[]","small",2,"sch",4,26,5,2,3,3,2,1,"75035","50","female","woman","","south-asian","","Yes","25",""
"27","61003bb158741c6a1d79903b","svTrial","survey",35,493777,"0.0-2.0-33.0","65553732575bb29198a888d7","65565b867ce5630ac62d7077",1,"9475","Tokyo_large_sch_11_1.jpg",NA,NA,NA,NA,NA,NA,NA,NA,NA,NA,NA,NA,NA,NA,NA,NA,"[]","small",1,"sch",11,27,1,2,3,1,2,1,"75035","50","female","woman","","south-asian","","Yes","25",""
"28","61003bb158741c6a1d79903b","svTrial","survey",36,504345,"0.0-2.0-34.0","65553732575bb29198a888d7","65565b867ce5630ac62d7077",1,"10537","Niigata_large_sch_10_3.jpg",NA,NA,NA,NA,NA,NA,NA,NA,NA,NA,NA,NA,NA,NA,NA,NA,"[]","large",2,"sch",10,28,5,2,2,2,2,1,"75035","50","female","woman","","south-asian","","Yes","25",""
"29","61003bb158741c6a1d79903b","svTrial","survey",37,516503,"0.0-2.0-35.0","65553732575bb29198a888d7","65565b867ce5630ac62d7077",1,"12139","Kanagawa_large_pos_10_1.jpg",NA,NA,NA,NA,NA,NA,NA,NA,NA,NA,NA,NA,NA,NA,NA,NA,"[]","small",1,"pos",10,29,5,3,2,3,1,1,"75035","50","female","woman","","south-asian","","Yes","25",""
"30","61003bb158741c6a1d79903b","svTrial","survey",38,539373,"0.0-2.0-36.0","65553732575bb29198a888d7","65565b867ce5630ac62d7077",1,"22849","Hokkaido_middle_pos_2_0.jpg",NA,NA,NA,NA,NA,NA,NA,NA,NA,NA,NA,NA,NA,NA,NA,NA,"[]","small",1,"pos",2,30,4,2,4,1,1,1,"75035","50","female","woman","","south-asian","","Yes","25",""
"31","61003bb158741c6a1d79903b","svTrial","survey",39,546144,"0.0-2.0-37.0","65553732575bb29198a888d7","65565b867ce5630ac62d7077",1,"6753","Tokyo_large_pos_12_2.jpg",NA,NA,NA,NA,NA,NA,NA,NA,NA,NA,NA,NA,NA,NA,NA,NA,"[]","middle",1,"pos",12,31,1,3,3,2,4,1,"75035","50","female","woman","","south-asian","","Yes","25",""
"32","61003bb158741c6a1d79903b","svTrial","survey",40,567726,"0.0-2.0-38.0","65553732575bb29198a888d7","65565b867ce5630ac62d7077",1,"21569","Ishikawa_middle_pos_2_0.jpg",NA,NA,NA,NA,NA,NA,NA,NA,NA,NA,NA,NA,NA,NA,NA,NA,"[]","middle",2,"sch",2,32,3,2,3,4,1,1,"75035","50","female","woman","","south-asian","","Yes","25",""
"33","61003bb158741c6a1d79903b","svTrial","survey",41,576007,"0.0-2.0-39.0","65553732575bb29198a888d7","65565b867ce5630ac62d7077",1,"8258","Toyama_large_pos_7_1.jpg",NA,NA,NA,NA,NA,NA,NA,NA,NA,NA,NA,NA,NA,NA,NA,NA,"[]","large",2,"sch",7,33,1,2,4,2,4,1,"75035","50","female","woman","","south-asian","","Yes","25",""
"34","61003bb158741c6a1d79903b","svTrial","survey",42,583212,"0.0-2.0-40.0","65553732575bb29198a888d7","65565b867ce5630ac62d7077",1,"7184","Tokyo_large_sch_9_3.jpg",NA,NA,NA,NA,NA,NA,NA,NA,NA,NA,NA,NA,NA,NA,NA,NA,"[]","middle",1,"sch",9,34,5,2,3,1,4,1,"75035","50","female","woman","","south-asian","","Yes","25",""
"35","61003bb158741c6a1d79903b","svTrial","survey",44,603890,"0.0-2.0-42.0","65553732575bb29198a888d7","65565b867ce5630ac62d7077",1,"8966","Niigata_small_sch_4_1.jpg",NA,NA,NA,NA,NA,NA,NA,NA,NA,NA,NA,NA,NA,NA,NA,NA,"[]","large",2,"sch",4,35,3,2,4,2,4,1,"75035","50","female","woman","","south-asian","","Yes","25",""
"36","61003bb158741c6a1d79903b","svTrial","survey",45,616431,"0.0-2.0-43.0","65553732575bb29198a888d7","65565b867ce5630ac62d7077",1,"12521","Niigata_middle_sch_2_0.jpg",NA,NA,NA,NA,NA,NA,NA,NA,NA,NA,NA,NA,NA,NA,NA,NA,"[]","large",2,"pos",2,36,4,2,3,1,3,1,"75035","50","female","woman","","south-asian","","Yes","25",""
"37","61003bb158741c6a1d79903b","svTrial","survey",46,630860,"0.0-2.0-44.0","65553732575bb29198a888d7","65565b867ce5630ac62d7077",1,"14411","Kanagawa_large_pos_1_3.jpg",NA,NA,NA,NA,NA,NA,NA,NA,NA,NA,NA,NA,NA,NA,NA,NA,"[]","large",1,"sch",1,37,5,5,4,4,5,1,"75035","50","female","woman","","south-asian","","Yes","25",""
"38","61003bb158741c6a1d79903b","svTrial","survey",47,639484,"0.0-2.0-45.0","65553732575bb29198a888d7","65565b867ce5630ac62d7077",1,"8603","Okinawa_large_sch_11_1.jpg",NA,NA,NA,NA,NA,NA,NA,NA,NA,NA,NA,NA,NA,NA,NA,NA,"[]","middle",1,"pos",11,38,3,4,2,4,2,1,"75035","50","female","woman","","south-asian","","Yes","25",""
"39","61003bb158741c6a1d79903b","svTrial","survey",48,647241,"0.0-2.0-46.0","65553732575bb29198a888d7","65565b867ce5630ac62d7077",1,"7738","Toyama_large_sch_11_0.jpg",NA,NA,NA,NA,NA,NA,NA,NA,NA,NA,NA,NA,NA,NA,NA,NA,"[]","middle",2,"sch",11,39,4,5,5,4,2,1,"75035","50","female","woman","","south-asian","","Yes","25",""
"40","61003bb158741c6a1d79903b","svTrial","survey",49,654331,"0.0-2.0-47.0","65553732575bb29198a888d7","65565b867ce5630ac62d7077",1,"7075","Tokyo_small_pos_3_1.jpg",NA,NA,NA,NA,NA,NA,NA,NA,NA,NA,NA,NA,NA,NA,NA,NA,"[]","middle",1,"sch",3,40,2,3,2,3,3,1,"75035","50","female","woman","","south-asian","","Yes","25",""
"41","61003bb158741c6a1d79903b","svTrial","survey",50,655664,"0.0-2.0-48.0","65553732575bb29198a888d7","65565b867ce5630ac62d7077",1,"1311","Tokyo_large_sch_10_1.jpg",NA,NA,NA,NA,NA,NA,NA,NA,NA,NA,NA,NA,NA,NA,NA,NA,"[]","middle",1,"pos",10,41,NA,NA,NA,NA,NA,1,"75035","50","female","woman","","south-asian","","Yes","25",""
"42","61003bb158741c6a1d79903b","svTrial","survey",51,664461,"0.0-2.0-49.0","65553732575bb29198a888d7","65565b867ce5630ac62d7077",1,"8781","Tokyo_large_pos_4_3.jpg",NA,NA,NA,NA,NA,NA,NA,NA,NA,NA,NA,NA,NA,NA,NA,NA,"[]","large",1,"pos",4,42,5,2,4,1,4,1,"75035","50","female","woman","","south-asian","","Yes","25",""
"43","61003bb158741c6a1d79903b","svTrial","survey",52,673437,"0.0-2.0-50.0","65553732575bb29198a888d7","65565b867ce5630ac62d7077",1,"8960","Tokyo_middle_sch_5_3.jpg",NA,NA,NA,NA,NA,NA,NA,NA,NA,NA,NA,NA,NA,NA,NA,NA,"[]","small",1,"sch",5,43,5,5,4,4,2,1,"75035","50","female","woman","","south-asian","","Yes","25",""
"44","61003bb158741c6a1d79903b","svTrial","survey",53,680126,"0.0-2.0-51.0","65553732575bb29198a888d7","65565b867ce5630ac62d7077",1,"6673","Okinawa_large_sch_6_3.jpg",NA,NA,NA,NA,NA,NA,NA,NA,NA,NA,NA,NA,NA,NA,NA,NA,"[]","large",1,"sch",6,44,5,5,5,5,5,1,"75035","50","female","woman","","south-asian","","Yes","25",""
"45","61003bb158741c6a1d79903b","svTrial","survey",54,688240,"0.0-2.0-52.0","65553732575bb29198a888d7","65565b867ce5630ac62d7077",1,"8096","Ishikawa_middle_pos_3_2.jpg",NA,NA,NA,NA,NA,NA,NA,NA,NA,NA,NA,NA,NA,NA,NA,NA,"[]","middle",2,"sch",3,45,1,2,2,3,2,1,"75035","50","female","woman","","south-asian","","Yes","25",""
"46","61003bb158741c6a1d79903b","svTrial","survey",55,695977,"0.0-2.0-53.0","65553732575bb29198a888d7","65565b867ce5630ac62d7077",1,"7717","Niigata_middle_sch_8_2.jpg",NA,NA,NA,NA,NA,NA,NA,NA,NA,NA,NA,NA,NA,NA,NA,NA,"[]","middle",2,"pos",8,46,2,3,2,3,2,1,"75035","50","female","woman","","south-asian","","Yes","25",""
"47","61003bb158741c6a1d79903b","svTrial","survey",56,702832,"0.0-2.0-54.0","65553732575bb29198a888d7","65565b867ce5630ac62d7077",1,"6836","Okinawa_large_pos_10_2.jpg",NA,NA,NA,NA,NA,NA,NA,NA,NA,NA,NA,NA,NA,NA,NA,NA,"[]","middle",1,"sch",10,47,4,5,4,3,4,1,"75035","50","female","woman","","south-asian","","Yes","25",""
"48","61003bb158741c6a1d79903b","svTrial","survey",57,711972,"0.0-2.0-55.0","65553732575bb29198a888d7","65565b867ce5630ac62d7077",1,"9126","Niigata_middle_sch_7_1.jpg",NA,NA,NA,NA,NA,NA,NA,NA,NA,NA,NA,NA,NA,NA,NA,NA,"[]","middle",2,"pos",7,48,4,2,4,2,2,1,"75035","50","female","woman","","south-asian","","Yes","25",""
