"","subject_id","task","trial_type","trial_index","time_elapsed","internal_node_id","study_id","session_id","group","rt","stimulus","width","height","webaudio","browser","browser_version","mobile","os","fullscreen","vsync_rate","webcam","microphone","success","timeout","failed_images","failed_audio","failed_video","accuracy","size","culture","loct","number","document.id","ambiguous","objects","invisible","chaos","complex","passedChecks","zipcode","age","sex","gender","gender-self-describe","ethnicity","ethnicity-self-describe","outsideUS","outsideUS_years","surveyComments"
"1","610301137498dc46e622b491","svTrial","survey",8,74036,"0.0-2.0-6.0","65553732575bb29198a888d7","6556535563aa3f2bd8908a1d",7,"25584","Tokyo_large_sch_6_1.jpg",NA,NA,NA,NA,NA,NA,NA,NA,NA,NA,NA,NA,NA,NA,NA,NA,"[]","large",1,"sch",6,1,4,4,3,4,3,1,"65201","22","female","woman","","caucasian","","No","",""
"2","610301137498dc46e622b491","svTrial","survey",9,94333,"0.0-2.0-7.0","65553732575bb29198a888d7","6556535563aa3f2bd8908a1d",7,"20286","Tokyo_middle_sch_1_1.jpg",NA,NA,NA,NA,NA,NA,NA,NA,NA,NA,NA,NA,NA,NA,NA,NA,"[]","large",1,"sch",1,2,2,2,3,1,1,1,"65201","22","female","woman","","caucasian","","No","",""
"3","610301137498dc46e622b491","svTrial","survey",10,107522,"0.0-2.0-8.0","65553732575bb29198a888d7","6556535563aa3f2bd8908a1d",7,"13180","Akita_middle_pos_8_3.jpg",NA,NA,NA,NA,NA,NA,NA,NA,NA,NA,NA,NA,NA,NA,NA,NA,"[]","small",2,"sch",8,3,1,1,2,1,1,1,"65201","22","female","woman","","caucasian","","No","",""
"4","610301137498dc46e622b491","svTrial","survey",11,125769,"0.0-2.0-9.0","65553732575bb29198a888d7","6556535563aa3f2bd8908a1d",7,"18237","Kanagawa_middle_sch_4_0.jpg",NA,NA,NA,NA,NA,NA,NA,NA,NA,NA,NA,NA,NA,NA,NA,NA,"[]","middle",1,"sch",4,4,2,2,1,1,1,1,"65201","22","female","woman","","caucasian","","No","",""
"5","610301137498dc46e622b491","svTrial","survey",12,143119,"0.0-2.0-10.0","65553732575bb29198a888d7","6556535563aa3f2bd8908a1d",7,"17340","Hokkaido_small_pos_4_2.jpg",NA,NA,NA,NA,NA,NA,NA,NA,NA,NA,NA,NA,NA,NA,NA,NA,"[]","small",1,"pos",4,5,1,1,1,2,1,1,"65201","22","female","woman","","caucasian","","No","",""
"6","610301137498dc46e622b491","svTrial","survey",13,171704,"0.0-2.0-11.0","65553732575bb29198a888d7","6556535563aa3f2bd8908a1d",7,"28576","Ishikawa_middle_sch_3_2.jpg",NA,NA,NA,NA,NA,NA,NA,NA,NA,NA,NA,NA,NA,NA,NA,NA,"[]","small",2,"sch",3,6,3,1,3,3,2,1,"65201","22","female","woman","","caucasian","","No","",""
"7","610301137498dc46e622b491","svTrial","survey",14,190727,"0.0-2.0-12.0","65553732575bb29198a888d7","6556535563aa3f2bd8908a1d",7,"19012","Tokyo_large_pos_10_2.jpg",NA,NA,NA,NA,NA,NA,NA,NA,NA,NA,NA,NA,NA,NA,NA,NA,"[]","large",1,"sch",10,7,4,2,5,4,4,1,"65201","22","female","woman","","caucasian","","No","",""
"8","610301137498dc46e622b491","svTrial","survey",15,203480,"0.0-2.0-13.0","65553732575bb29198a888d7","6556535563aa3f2bd8908a1d",7,"12744","Niigata_large_sch_12_3.jpg",NA,NA,NA,NA,NA,NA,NA,NA,NA,NA,NA,NA,NA,NA,NA,NA,"[]","middle",2,"sch",12,8,1,1,1,1,1,1,"65201","22","female","woman","","caucasian","","No","",""
"9","610301137498dc46e622b491","svTrial","survey",16,234869,"0.0-2.0-14.0","65553732575bb29198a888d7","6556535563aa3f2bd8908a1d",7,"31379","Toyama_large_sch_7_2.jpg",NA,NA,NA,NA,NA,NA,NA,NA,NA,NA,NA,NA,NA,NA,NA,NA,"[]","small",2,"sch",7,9,3,3,3,2,2,1,"65201","22","female","woman","","caucasian","","No","",""
"10","610301137498dc46e622b491","svTrial","survey",17,246779,"0.0-2.0-15.0","65553732575bb29198a888d7","6556535563aa3f2bd8908a1d",7,"11901","Ishikawa_small_pos_1_2.jpg",NA,NA,NA,NA,NA,NA,NA,NA,NA,NA,NA,NA,NA,NA,NA,NA,"[]","small",2,"pos",1,10,1,3,1,2,2,1,"65201","22","female","woman","","caucasian","","No","",""
"11","610301137498dc46e622b491","svTrial","survey",18,264773,"0.0-2.0-16.0","65553732575bb29198a888d7","6556535563aa3f2bd8908a1d",7,"17985","Hokkaido_middle_pos_5_3.jpg",NA,NA,NA,NA,NA,NA,NA,NA,NA,NA,NA,NA,NA,NA,NA,NA,"[]","middle",1,"pos",5,11,2,3,2,2,2,1,"65201","22","female","woman","","caucasian","","No","",""
"12","610301137498dc46e622b491","svTrial","survey",19,288058,"0.0-2.0-17.0","65553732575bb29198a888d7","6556535563aa3f2bd8908a1d",7,"23277","Hokkaido_small_sch_1_1.jpg",NA,NA,NA,NA,NA,NA,NA,NA,NA,NA,NA,NA,NA,NA,NA,NA,"[]","small",1,"pos",1,12,3,2,2,3,3,1,"65201","22","female","woman","","caucasian","","No","",""
"13","610301137498dc46e622b491","svTrial","survey",21,315971,"0.0-2.0-19.0","65553732575bb29198a888d7","6556535563aa3f2bd8908a1d",7,"23135","Niigata_large_sch_6_3.jpg",NA,NA,NA,NA,NA,NA,NA,NA,NA,NA,NA,NA,NA,NA,NA,NA,"[]","small",2,"sch",6,13,4,2,4,4,3,1,"65201","22","female","woman","","caucasian","","No","",""
"14","610301137498dc46e622b491","svTrial","survey",22,328076,"0.0-2.0-20.0","65553732575bb29198a888d7","6556535563aa3f2bd8908a1d",7,"12097","Akita_middle_pos_6_3.jpg",NA,NA,NA,NA,NA,NA,NA,NA,NA,NA,NA,NA,NA,NA,NA,NA,"[]","large",2,"sch",6,14,4,1,3,2,2,1,"65201","22","female","woman","","caucasian","","No","",""
"15","610301137498dc46e622b491","svTrial","survey",23,342977,"0.0-2.0-21.0","65553732575bb29198a888d7","6556535563aa3f2bd8908a1d",7,"14895","Ishikawa_large_sch_8_0.jpg",NA,NA,NA,NA,NA,NA,NA,NA,NA,NA,NA,NA,NA,NA,NA,NA,"[]","large",2,"pos",8,15,4,2,4,4,3,1,"65201","22","female","woman","","caucasian","","No","",""
"16","610301137498dc46e622b491","svTrial","survey",24,360106,"0.0-2.0-22.0","65553732575bb29198a888d7","6556535563aa3f2bd8908a1d",7,"17119","Toyama_large_sch_3_2.jpg",NA,NA,NA,NA,NA,NA,NA,NA,NA,NA,NA,NA,NA,NA,NA,NA,"[]","large",2,"sch",3,16,4,3,3,3,3,1,"65201","22","female","woman","","caucasian","","No","",""
"17","610301137498dc46e622b491","svTrial","survey",25,377168,"0.0-2.0-23.0","65553732575bb29198a888d7","6556535563aa3f2bd8908a1d",7,"17051","Okinawa_large_pos_7_3.jpg",NA,NA,NA,NA,NA,NA,NA,NA,NA,NA,NA,NA,NA,NA,NA,NA,"[]","large",1,"sch",7,17,2,1,3,1,1,1,"65201","22","female","woman","","caucasian","","No","",""
"18","610301137498dc46e622b491","svTrial","survey",26,396831,"0.0-2.0-24.0","65553732575bb29198a888d7","6556535563aa3f2bd8908a1d",7,"19654","Ishikawa_small_pos_2_3.jpg",NA,NA,NA,NA,NA,NA,NA,NA,NA,NA,NA,NA,NA,NA,NA,NA,"[]","middle",2,"pos",2,18,3,2,1,3,1,1,"65201","22","female","woman","","caucasian","","No","",""
"19","610301137498dc46e622b491","svTrial","survey",27,412546,"0.0-2.0-25.0","65553732575bb29198a888d7","6556535563aa3f2bd8908a1d",7,"15704","Ishikawa_middle_sch_7_3.jpg",NA,NA,NA,NA,NA,NA,NA,NA,NA,NA,NA,NA,NA,NA,NA,NA,"[]","large",2,"pos",7,19,2,3,2,2,2,1,"65201","22","female","woman","","caucasian","","No","",""
"20","610301137498dc46e622b491","svTrial","survey",28,443231,"0.0-2.0-26.0","65553732575bb29198a888d7","6556535563aa3f2bd8908a1d",7,"30676","Hokkaido_large_pos_8_1.jpg",NA,NA,NA,NA,NA,NA,NA,NA,NA,NA,NA,NA,NA,NA,NA,NA,"[]","small",1,"sch",8,20,4,4,3,4,3,1,"65201","22","female","woman","","caucasian","","No","",""
"21","610301137498dc46e622b491","svTrial","survey",29,455976,"0.0-2.0-27.0","65553732575bb29198a888d7","6556535563aa3f2bd8908a1d",7,"12738","Ishikawa_middle_sch_6_0.jpg",NA,NA,NA,NA,NA,NA,NA,NA,NA,NA,NA,NA,NA,NA,NA,NA,"[]","large",2,"sch",6,21,2,1,3,1,1,1,"65201","22","female","woman","","caucasian","","No","",""
"22","610301137498dc46e622b491","svTrial","survey",30,471668,"0.0-2.0-28.0","65553732575bb29198a888d7","6556535563aa3f2bd8908a1d",7,"15683","Tokyo_large_sch_4_2.jpg",NA,NA,NA,NA,NA,NA,NA,NA,NA,NA,NA,NA,NA,NA,NA,NA,"[]","small",1,"pos",4,22,4,4,4,5,3,1,"65201","22","female","woman","","caucasian","","No","",""
"23","610301137498dc46e622b491","svTrial","survey",31,486722,"0.0-2.0-29.0","65553732575bb29198a888d7","6556535563aa3f2bd8908a1d",7,"15044","Akita_middle_pos_4_3.jpg",NA,NA,NA,NA,NA,NA,NA,NA,NA,NA,NA,NA,NA,NA,NA,NA,"[]","large",2,"pos",4,23,2,3,2,1,1,1,"65201","22","female","woman","","caucasian","","No","",""
"24","610301137498dc46e622b491","svTrial","survey",32,498860,"0.0-2.0-30.0","65553732575bb29198a888d7","6556535563aa3f2bd8908a1d",7,"12128","Okinawa_small_sch_3_0.jpg",NA,NA,NA,NA,NA,NA,NA,NA,NA,NA,NA,NA,NA,NA,NA,NA,"[]","large",1,"sch",3,24,1,1,2,1,1,1,"65201","22","female","woman","","caucasian","","No","",""
"25","610301137498dc46e622b491","svTrial","survey",34,525927,"0.0-2.0-32.0","65553732575bb29198a888d7","6556535563aa3f2bd8908a1d",7,"11293","Niigata_small_pos_4_2.jpg",NA,NA,NA,NA,NA,NA,NA,NA,NA,NA,NA,NA,NA,NA,NA,NA,"[]","middle",2,"sch",4,25,2,4,2,1,1,1,"65201","22","female","woman","","caucasian","","No","",""
"26","610301137498dc46e622b491","svTrial","survey",35,549454,"0.0-2.0-33.0","65553732575bb29198a888d7","6556535563aa3f2bd8908a1d",7,"23517","Niigata_large_pos_7_3.jpg",NA,NA,NA,NA,NA,NA,NA,NA,NA,NA,NA,NA,NA,NA,NA,NA,"[]","middle",2,"sch",7,26,2,3,3,4,3,1,"65201","22","female","woman","","caucasian","","No","",""
"27","610301137498dc46e622b491","svTrial","survey",36,562852,"0.0-2.0-34.0","65553732575bb29198a888d7","6556535563aa3f2bd8908a1d",7,"13388","Ishikawa_large_sch_7_3.jpg",NA,NA,NA,NA,NA,NA,NA,NA,NA,NA,NA,NA,NA,NA,NA,NA,"[]","large",2,"pos",7,27,2,2,2,3,1,1,"65201","22","female","woman","","caucasian","","No","",""
"28","610301137498dc46e622b491","svTrial","survey",37,572901,"0.0-2.0-35.0","65553732575bb29198a888d7","6556535563aa3f2bd8908a1d",7,"10041","Hokkaido_large_sch_7_2.jpg",NA,NA,NA,NA,NA,NA,NA,NA,NA,NA,NA,NA,NA,NA,NA,NA,"[]","large",1,"sch",7,28,1,1,2,1,1,1,"65201","22","female","woman","","caucasian","","No","",""
"29","610301137498dc46e622b491","svTrial","survey",38,587505,"0.0-2.0-36.0","65553732575bb29198a888d7","6556535563aa3f2bd8908a1d",7,"14594","Okinawa_middle_sch_8_3.jpg",NA,NA,NA,NA,NA,NA,NA,NA,NA,NA,NA,NA,NA,NA,NA,NA,"[]","large",1,"sch",8,29,2,2,1,1,1,1,"65201","22","female","woman","","caucasian","","No","",""
"30","610301137498dc46e622b491","svTrial","survey",39,600131,"0.0-2.0-37.0","65553732575bb29198a888d7","6556535563aa3f2bd8908a1d",7,"12617","Niigata_small_sch_2_2.jpg",NA,NA,NA,NA,NA,NA,NA,NA,NA,NA,NA,NA,NA,NA,NA,NA,"[]","small",2,"sch",2,30,3,2,1,2,2,1,"65201","22","female","woman","","caucasian","","No","",""
"31","610301137498dc46e622b491","svTrial","survey",40,613231,"0.0-2.0-38.0","65553732575bb29198a888d7","6556535563aa3f2bd8908a1d",7,"13090","Akita_middle_sch_3_1.jpg",NA,NA,NA,NA,NA,NA,NA,NA,NA,NA,NA,NA,NA,NA,NA,NA,"[]","large",2,"pos",3,31,2,1,2,1,1,1,"65201","22","female","woman","","caucasian","","No","",""
"32","610301137498dc46e622b491","svTrial","survey",41,659449,"0.0-2.0-39.0","65553732575bb29198a888d7","6556535563aa3f2bd8908a1d",7,"46208","Akita_small_pos_1_2.jpg",NA,NA,NA,NA,NA,NA,NA,NA,NA,NA,NA,NA,NA,NA,NA,NA,"[]","middle",2,"pos",1,32,4,2,4,4,2,1,"65201","22","female","woman","","caucasian","","No","",""
"33","610301137498dc46e622b491","svTrial","survey",42,681672,"0.0-2.0-40.0","65553732575bb29198a888d7","6556535563aa3f2bd8908a1d",7,"22214","Tokyo_middle_sch_4_0.jpg",NA,NA,NA,NA,NA,NA,NA,NA,NA,NA,NA,NA,NA,NA,NA,NA,"[]","large",1,"sch",4,33,3,2,3,3,3,1,"65201","22","female","woman","","caucasian","","No","",""
"34","610301137498dc46e622b491","svTrial","survey",43,698568,"0.0-2.0-41.0","65553732575bb29198a888d7","6556535563aa3f2bd8908a1d",7,"16887","Kanagawa_large_sch_1_3.jpg",NA,NA,NA,NA,NA,NA,NA,NA,NA,NA,NA,NA,NA,NA,NA,NA,"[]","middle",1,"sch",1,34,2,2,4,2,2,1,"65201","22","female","woman","","caucasian","","No","",""
"35","610301137498dc46e622b491","svTrial","survey",44,714480,"0.0-2.0-42.0","65553732575bb29198a888d7","6556535563aa3f2bd8908a1d",7,"15904","Tokyo_middle_pos_4_2.jpg",NA,NA,NA,NA,NA,NA,NA,NA,NA,NA,NA,NA,NA,NA,NA,NA,"[]","small",1,"pos",4,35,4,3,4,5,3,1,"65201","22","female","woman","","caucasian","","No","",""
"36","610301137498dc46e622b491","svTrial","survey",45,743947,"0.0-2.0-43.0","65553732575bb29198a888d7","6556535563aa3f2bd8908a1d",7,"29458","Tokyo_large_sch_3_3.jpg",NA,NA,NA,NA,NA,NA,NA,NA,NA,NA,NA,NA,NA,NA,NA,NA,"[]","large",1,"sch",3,36,2,2,2,2,2,1,"65201","22","female","woman","","caucasian","","No","",""
"37","610301137498dc46e622b491","svTrial","survey",46,761509,"0.0-2.0-44.0","65553732575bb29198a888d7","6556535563aa3f2bd8908a1d",7,"17552","Okinawa_middle_pos_5_1.jpg",NA,NA,NA,NA,NA,NA,NA,NA,NA,NA,NA,NA,NA,NA,NA,NA,"[]","large",1,"sch",5,37,3,1,3,3,2,1,"65201","22","female","woman","","caucasian","","No","",""
"38","610301137498dc46e622b491","svTrial","survey",47,772906,"0.0-2.0-45.0","65553732575bb29198a888d7","6556535563aa3f2bd8908a1d",7,"11387","Okinawa_middle_sch_6_0.jpg",NA,NA,NA,NA,NA,NA,NA,NA,NA,NA,NA,NA,NA,NA,NA,NA,"[]","small",1,"sch",6,38,4,4,4,4,3,1,"65201","22","female","woman","","caucasian","","No","",""
"39","610301137498dc46e622b491","svTrial","survey",48,786806,"0.0-2.0-46.0","65553732575bb29198a888d7","6556535563aa3f2bd8908a1d",7,"13890","Tokyo_large_pos_11_0.jpg",NA,NA,NA,NA,NA,NA,NA,NA,NA,NA,NA,NA,NA,NA,NA,NA,"[]","small",1,"sch",11,39,2,3,2,2,1,1,"65201","22","female","woman","","caucasian","","No","",""
"40","610301137498dc46e622b491","svTrial","survey",49,804613,"0.0-2.0-47.0","65553732575bb29198a888d7","6556535563aa3f2bd8908a1d",7,"17796","Akita_small_pos_3_3.jpg",NA,NA,NA,NA,NA,NA,NA,NA,NA,NA,NA,NA,NA,NA,NA,NA,"[]","small",2,"pos",3,40,3,2,2,3,1,1,"65201","22","female","woman","","caucasian","","No","",""
"41","610301137498dc46e622b491","svTrial","survey",50,816068,"0.0-2.0-48.0","65553732575bb29198a888d7","6556535563aa3f2bd8908a1d",7,"11447","Niigata_middle_sch_1_1.jpg",NA,NA,NA,NA,NA,NA,NA,NA,NA,NA,NA,NA,NA,NA,NA,NA,"[]","large",2,"sch",1,41,3,2,3,2,2,1,"65201","22","female","woman","","caucasian","","No","",""
"42","610301137498dc46e622b491","svTrial","survey",51,829553,"0.0-2.0-49.0","65553732575bb29198a888d7","6556535563aa3f2bd8908a1d",7,"13476","Kanagawa_large_pos_8_3.jpg",NA,NA,NA,NA,NA,NA,NA,NA,NA,NA,NA,NA,NA,NA,NA,NA,"[]","large",1,"pos",8,42,3,2,4,4,3,1,"65201","22","female","woman","","caucasian","","No","",""
"43","610301137498dc46e622b491","svTrial","survey",52,847113,"0.0-2.0-50.0","65553732575bb29198a888d7","6556535563aa3f2bd8908a1d",7,"17552","Toyama_middle_sch_2_2.jpg",NA,NA,NA,NA,NA,NA,NA,NA,NA,NA,NA,NA,NA,NA,NA,NA,"[]","large",2,"pos",2,43,3,2,1,2,1,1,"65201","22","female","woman","","caucasian","","No","",""
"44","610301137498dc46e622b491","svTrial","survey",53,862307,"0.0-2.0-51.0","65553732575bb29198a888d7","6556535563aa3f2bd8908a1d",7,"15184","Hokkaido_large_sch_9_1.jpg",NA,NA,NA,NA,NA,NA,NA,NA,NA,NA,NA,NA,NA,NA,NA,NA,"[]","large",1,"sch",9,44,2,4,1,3,1,1,"65201","22","female","woman","","caucasian","","No","",""
"45","610301137498dc46e622b491","svTrial","survey",54,876605,"0.0-2.0-52.0","65553732575bb29198a888d7","6556535563aa3f2bd8908a1d",7,"14288","Ishikawa_middle_pos_5_1.jpg",NA,NA,NA,NA,NA,NA,NA,NA,NA,NA,NA,NA,NA,NA,NA,NA,"[]","large",2,"sch",5,45,4,2,4,4,3,1,"65201","22","female","woman","","caucasian","","No","",""
"46","610301137498dc46e622b491","svTrial","survey",55,891060,"0.0-2.0-53.0","65553732575bb29198a888d7","6556535563aa3f2bd8908a1d",7,"14444","Hokkaido_large_pos_6_0.jpg",NA,NA,NA,NA,NA,NA,NA,NA,NA,NA,NA,NA,NA,NA,NA,NA,"[]","middle",1,"pos",6,46,2,1,1,2,1,1,"65201","22","female","woman","","caucasian","","No","",""
"47","610301137498dc46e622b491","svTrial","survey",56,911350,"0.0-2.0-54.0","65553732575bb29198a888d7","6556535563aa3f2bd8908a1d",7,"20280","Niigata_middle_sch_3_2.jpg",NA,NA,NA,NA,NA,NA,NA,NA,NA,NA,NA,NA,NA,NA,NA,NA,"[]","middle",2,"pos",3,47,2,3,1,4,3,1,"65201","22","female","woman","","caucasian","","No","",""
"48","610301137498dc46e622b491","svTrial","survey",57,920336,"0.0-2.0-55.0","65553732575bb29198a888d7","6556535563aa3f2bd8908a1d",7,"8977","Hokkaido_middle_sch_8_2.jpg",NA,NA,NA,NA,NA,NA,NA,NA,NA,NA,NA,NA,NA,NA,NA,NA,"[]","large",1,"pos",8,48,1,1,1,1,1,1,"65201","22","female","woman","","caucasian","","No","",""
