"","subject_id","task","trial_type","trial_index","time_elapsed","internal_node_id","study_id","session_id","group","rt","stimulus","width","height","webaudio","browser","browser_version","mobile","os","fullscreen","vsync_rate","webcam","microphone","success","timeout","failed_images","failed_audio","failed_video","accuracy","size","culture","loct","number","document.id","ambiguous","objects","invisible","chaos","complex","passedChecks","zipcode","age","sex","gender","gender-self-describe","ethnicity","ethnicity-self-describe","outsideUS","outsideUS_years","surveyComments"
"1","610ad21c0586bfb21376e859","svTrial","survey",8,86909,"0.0-2.0-6.0","65553732575bb29198a888d7","65565bb849595ee8db0a9db6",3,"31265","Ishikawa_large_pos_7_3.jpg",NA,NA,NA,NA,NA,NA,NA,NA,NA,NA,NA,NA,NA,NA,NA,NA,"[]","large",2,"sch",7,1,4,2,1,4,3,1,"37725","32","female","woman","","caucasian","","No","",""
"2","610ad21c0586bfb21376e859","svTrial","survey",9,108364,"0.0-2.0-7.0","65553732575bb29198a888d7","65565bb849595ee8db0a9db6",3,"21413","Hokkaido_middle_sch_6_2.jpg",NA,NA,NA,NA,NA,NA,NA,NA,NA,NA,NA,NA,NA,NA,NA,NA,"[]","small",1,"sch",6,2,5,2,1,2,2,1,"37725","32","female","woman","","caucasian","","No","",""
"3","610ad21c0586bfb21376e859","svTrial","survey",10,127833,"0.0-2.0-8.0","65553732575bb29198a888d7","65565bb849595ee8db0a9db6",3,"19433","Kanagawa_middle_pos_6_2.jpg",NA,NA,NA,NA,NA,NA,NA,NA,NA,NA,NA,NA,NA,NA,NA,NA,"[]","large",1,"sch",6,3,2,4,2,3,3,1,"37725","32","female","woman","","caucasian","","No","",""
"4","610ad21c0586bfb21376e859","svTrial","survey",11,144691,"0.0-2.0-9.0","65553732575bb29198a888d7","65565bb849595ee8db0a9db6",3,"16823","Okinawa_large_sch_2_3.jpg",NA,NA,NA,NA,NA,NA,NA,NA,NA,NA,NA,NA,NA,NA,NA,NA,"[]","small",1,"sch",2,4,4,1,1,2,2,1,"37725","32","female","woman","","caucasian","","No","",""
"5","610ad21c0586bfb21376e859","svTrial","survey",12,155933,"0.0-2.0-10.0","65553732575bb29198a888d7","65565bb849595ee8db0a9db6",3,"11208","Toyama_middle_pos_1_2.jpg",NA,NA,NA,NA,NA,NA,NA,NA,NA,NA,NA,NA,NA,NA,NA,NA,"[]","middle",2,"pos",1,5,1,1,1,1,1,1,"37725","32","female","woman","","caucasian","","No","",""
"6","610ad21c0586bfb21376e859","svTrial","survey",13,170022,"0.0-2.0-11.0","65553732575bb29198a888d7","65565bb849595ee8db0a9db6",3,"14053","Hokkaido_large_pos_4_0.jpg",NA,NA,NA,NA,NA,NA,NA,NA,NA,NA,NA,NA,NA,NA,NA,NA,"[]","middle",1,"sch",4,6,3,3,1,3,3,1,"37725","32","female","woman","","caucasian","","No","",""
"7","610ad21c0586bfb21376e859","svTrial","survey",14,182763,"0.0-2.0-12.0","65553732575bb29198a888d7","65565bb849595ee8db0a9db6",3,"12702","Hokkaido_middle_pos_1_0.jpg",NA,NA,NA,NA,NA,NA,NA,NA,NA,NA,NA,NA,NA,NA,NA,NA,"[]","small",1,"sch",1,7,1,2,1,2,2,1,"37725","32","female","woman","","caucasian","","No","",""
"8","610ad21c0586bfb21376e859","svTrial","survey",15,196154,"0.0-2.0-13.0","65553732575bb29198a888d7","65565bb849595ee8db0a9db6",3,"13337","Ishikawa_middle_pos_6_1.jpg",NA,NA,NA,NA,NA,NA,NA,NA,NA,NA,NA,NA,NA,NA,NA,NA,"[]","middle",2,"pos",6,8,1,1,1,1,1,1,"37725","32","female","woman","","caucasian","","No","",""
"9","610ad21c0586bfb21376e859","svTrial","survey",16,212707,"0.0-2.0-14.0","65553732575bb29198a888d7","65565bb849595ee8db0a9db6",3,"16515","Toyama_small_sch_3_1.jpg",NA,NA,NA,NA,NA,NA,NA,NA,NA,NA,NA,NA,NA,NA,NA,NA,"[]","large",2,"pos",3,9,3,2,3,2,4,1,"37725","32","female","woman","","caucasian","","No","",""
"10","610ad21c0586bfb21376e859","svTrial","survey",17,225395,"0.0-2.0-15.0","65553732575bb29198a888d7","65565bb849595ee8db0a9db6",3,"12650","Tokyo_small_sch_1_0.jpg",NA,NA,NA,NA,NA,NA,NA,NA,NA,NA,NA,NA,NA,NA,NA,NA,"[]","small",1,"sch",1,10,4,2,1,3,3,1,"37725","32","female","woman","","caucasian","","No","",""
"11","610ad21c0586bfb21376e859","svTrial","survey",18,227735,"0.0-2.0-16.0","65553732575bb29198a888d7","65565bb849595ee8db0a9db6",3,"2294","Kanagawa_large_pos_7_1.jpg",NA,NA,NA,NA,NA,NA,NA,NA,NA,NA,NA,NA,NA,NA,NA,NA,"[]","small",1,"pos",7,11,NA,NA,NA,NA,NA,1,"37725","32","female","woman","","caucasian","","No","",""
"12","610ad21c0586bfb21376e859","svTrial","survey",19,239094,"0.0-2.0-17.0","65553732575bb29198a888d7","65565bb849595ee8db0a9db6",3,"11327","Akita_large_pos_9_3.jpg",NA,NA,NA,NA,NA,NA,NA,NA,NA,NA,NA,NA,NA,NA,NA,NA,"[]","small",2,"pos",9,12,1,3,1,1,2,1,"37725","32","female","woman","","caucasian","","No","",""
"13","610ad21c0586bfb21376e859","svTrial","survey",20,252859,"0.0-2.0-18.0","65553732575bb29198a888d7","65565bb849595ee8db0a9db6",3,"13727","Akita_large_sch_10_0.jpg",NA,NA,NA,NA,NA,NA,NA,NA,NA,NA,NA,NA,NA,NA,NA,NA,"[]","small",2,"pos",10,13,5,1,2,2,2,1,"37725","32","female","woman","","caucasian","","No","",""
"14","610ad21c0586bfb21376e859","svTrial","survey",21,273173,"0.0-2.0-19.0","65553732575bb29198a888d7","65565bb849595ee8db0a9db6",3,"20290","Ishikawa_large_sch_6_0.jpg",NA,NA,NA,NA,NA,NA,NA,NA,NA,NA,NA,NA,NA,NA,NA,NA,"[]","small",2,"sch",6,14,4,2,1,1,3,1,"37725","32","female","woman","","caucasian","","No","",""
"15","610ad21c0586bfb21376e859","svTrial","survey",22,291713,"0.0-2.0-20.0","65553732575bb29198a888d7","65565bb849595ee8db0a9db6",3,"18503","Toyama_large_sch_8_3.jpg",NA,NA,NA,NA,NA,NA,NA,NA,NA,NA,NA,NA,NA,NA,NA,NA,"[]","small",2,"pos",8,15,1,2,1,1,2,1,"37725","32","female","woman","","caucasian","","No","",""
"16","610ad21c0586bfb21376e859","svTrial","survey",23,301090,"0.0-2.0-21.0","65553732575bb29198a888d7","65565bb849595ee8db0a9db6",3,"9339","Niigata_small_pos_1_1.jpg",NA,NA,NA,NA,NA,NA,NA,NA,NA,NA,NA,NA,NA,NA,NA,NA,"[]","small",2,"pos",1,16,1,1,1,1,1,1,"37725","32","female","woman","","caucasian","","No","",""
"17","610ad21c0586bfb21376e859","svTrial","survey",24,312058,"0.0-2.0-22.0","65553732575bb29198a888d7","65565bb849595ee8db0a9db6",3,"10940","Okinawa_small_pos_3_3.jpg",NA,NA,NA,NA,NA,NA,NA,NA,NA,NA,NA,NA,NA,NA,NA,NA,"[]","large",1,"pos",3,17,5,2,3,4,4,1,"37725","32","female","woman","","caucasian","","No","",""
"18","610ad21c0586bfb21376e859","svTrial","survey",25,337935,"0.0-2.0-23.0","65553732575bb29198a888d7","65565bb849595ee8db0a9db6",3,"25838","Kanagawa_middle_sch_1_2.jpg",NA,NA,NA,NA,NA,NA,NA,NA,NA,NA,NA,NA,NA,NA,NA,NA,"[]","small",1,"sch",1,18,3,3,2,1,4,1,"37725","32","female","woman","","caucasian","","No","",""
"19","610ad21c0586bfb21376e859","svTrial","survey",26,356638,"0.0-2.0-24.0","65553732575bb29198a888d7","65565bb849595ee8db0a9db6",3,"18679","Kanagawa_large_pos_4_3.jpg",NA,NA,NA,NA,NA,NA,NA,NA,NA,NA,NA,NA,NA,NA,NA,NA,"[]","small",1,"pos",4,19,NA,2,1,3,5,1,"37725","32","female","woman","","caucasian","","No","",""
"20","610ad21c0586bfb21376e859","svTrial","survey",27,368560,"0.0-2.0-25.0","65553732575bb29198a888d7","65565bb849595ee8db0a9db6",3,"11872","Tokyo_small_sch_4_2.jpg",NA,NA,NA,NA,NA,NA,NA,NA,NA,NA,NA,NA,NA,NA,NA,NA,"[]","large",1,"pos",4,20,4,2,1,2,NA,1,"37725","32","female","woman","","caucasian","","No","",""
"21","610ad21c0586bfb21376e859","svTrial","survey",28,380757,"0.0-2.0-26.0","65553732575bb29198a888d7","65565bb849595ee8db0a9db6",3,"12168","Okinawa_middle_pos_4_0.jpg",NA,NA,NA,NA,NA,NA,NA,NA,NA,NA,NA,NA,NA,NA,NA,NA,"[]","small",1,"sch",4,21,1,3,1,1,4,1,"37725","32","female","woman","","caucasian","","No","",""
"22","610ad21c0586bfb21376e859","svTrial","survey",29,391160,"0.0-2.0-27.0","65553732575bb29198a888d7","65565bb849595ee8db0a9db6",3,"10369","Hokkaido_middle_sch_1_2.jpg",NA,NA,NA,NA,NA,NA,NA,NA,NA,NA,NA,NA,NA,NA,NA,NA,"[]","small",1,"sch",1,22,1,1,1,1,1,1,"37725","32","female","woman","","caucasian","","No","",""
"23","610ad21c0586bfb21376e859","svTrial","survey",30,403589,"0.0-2.0-28.0","65553732575bb29198a888d7","65565bb849595ee8db0a9db6",3,"12401","Hokkaido_middle_sch_2_0.jpg",NA,NA,NA,NA,NA,NA,NA,NA,NA,NA,NA,NA,NA,NA,NA,NA,"[]","small",1,"pos",2,23,1,1,1,2,5,1,"37725","32","female","woman","","caucasian","","No","",""
"24","610ad21c0586bfb21376e859","svTrial","survey",31,460284,"0.0-2.0-29.0","65553732575bb29198a888d7","65565bb849595ee8db0a9db6",3,"56658","Kanagawa_middle_sch_2_1.jpg",NA,NA,NA,NA,NA,NA,NA,NA,NA,NA,NA,NA,NA,NA,NA,NA,"[]","large",1,"sch",2,24,2,2,1,2,1,1,"37725","32","female","woman","","caucasian","","No","",""
"25","610ad21c0586bfb21376e859","svTrial","survey",33,509557,"0.0-2.0-31.0","65553732575bb29198a888d7","65565bb849595ee8db0a9db6",3,"33453","Niigata_large_pos_4_3.jpg",NA,NA,NA,NA,NA,NA,NA,NA,NA,NA,NA,NA,NA,NA,NA,NA,"[]","middle",2,"pos",4,25,4,4,1,5,5,1,"37725","32","female","woman","","caucasian","","No","",""
"26","610ad21c0586bfb21376e859","svTrial","survey",34,538041,"0.0-2.0-32.0","65553732575bb29198a888d7","65565bb849595ee8db0a9db6",3,"28448","Ishikawa_large_pos_5_0.jpg",NA,NA,NA,NA,NA,NA,NA,NA,NA,NA,NA,NA,NA,NA,NA,NA,"[]","large",2,"pos",5,26,2,4,1,3,4,1,"37725","32","female","woman","","caucasian","","No","",""
"27","610ad21c0586bfb21376e859","svTrial","survey",36,557065,"0.0-2.0-34.0","65553732575bb29198a888d7","65565bb849595ee8db0a9db6",3,"14263","Akita_large_sch_1_2.jpg",NA,NA,NA,NA,NA,NA,NA,NA,NA,NA,NA,NA,NA,NA,NA,NA,"[]","small",2,"pos",1,27,1,3,1,2,5,1,"37725","32","female","woman","","caucasian","","No","",""
"28","610ad21c0586bfb21376e859","svTrial","survey",37,570066,"0.0-2.0-35.0","65553732575bb29198a888d7","65565bb849595ee8db0a9db6",3,"12964","Hokkaido_large_sch_3_3.jpg",NA,NA,NA,NA,NA,NA,NA,NA,NA,NA,NA,NA,NA,NA,NA,NA,"[]","small",1,"sch",3,28,4,1,1,1,2,1,"37725","32","female","woman","","caucasian","","No","",""
"29","610ad21c0586bfb21376e859","svTrial","survey",38,585313,"0.0-2.0-36.0","65553732575bb29198a888d7","65565bb849595ee8db0a9db6",3,"15202","Kanagawa_middle_pos_2_2.jpg",NA,NA,NA,NA,NA,NA,NA,NA,NA,NA,NA,NA,NA,NA,NA,NA,"[]","small",1,"pos",2,29,5,NA,1,2,3,1,"37725","32","female","woman","","caucasian","","No","",""
"30","610ad21c0586bfb21376e859","svTrial","survey",39,597555,"0.0-2.0-37.0","65553732575bb29198a888d7","65565bb849595ee8db0a9db6",3,"12212","Niigata_large_sch_3_0.jpg",NA,NA,NA,NA,NA,NA,NA,NA,NA,NA,NA,NA,NA,NA,NA,NA,"[]","large",2,"sch",3,30,2,1,1,1,1,1,"37725","32","female","woman","","caucasian","","No","",""
"31","610ad21c0586bfb21376e859","svTrial","survey",40,610135,"0.0-2.0-38.0","65553732575bb29198a888d7","65565bb849595ee8db0a9db6",3,"12556","Kanagawa_large_sch_11_0.jpg",NA,NA,NA,NA,NA,NA,NA,NA,NA,NA,NA,NA,NA,NA,NA,NA,"[]","large",1,"sch",11,31,2,3,1,4,3,1,"37725","32","female","woman","","caucasian","","No","",""
"32","610ad21c0586bfb21376e859","svTrial","survey",41,619770,"0.0-2.0-39.0","65553732575bb29198a888d7","65565bb849595ee8db0a9db6",3,"9603","Ishikawa_large_pos_3_2.jpg",NA,NA,NA,NA,NA,NA,NA,NA,NA,NA,NA,NA,NA,NA,NA,NA,"[]","large",2,"pos",3,32,1,1,1,1,1,1,"37725","32","female","woman","","caucasian","","No","",""
"33","610ad21c0586bfb21376e859","svTrial","survey",42,633037,"0.0-2.0-40.0","65553732575bb29198a888d7","65565bb849595ee8db0a9db6",3,"13247","Niigata_middle_pos_7_3.jpg",NA,NA,NA,NA,NA,NA,NA,NA,NA,NA,NA,NA,NA,NA,NA,NA,"[]","large",2,"sch",7,33,1,3,1,3,5,1,"37725","32","female","woman","","caucasian","","No","",""
"34","610ad21c0586bfb21376e859","svTrial","survey",43,645705,"0.0-2.0-41.0","65553732575bb29198a888d7","65565bb849595ee8db0a9db6",3,"12625","Ishikawa_large_pos_6_0.jpg",NA,NA,NA,NA,NA,NA,NA,NA,NA,NA,NA,NA,NA,NA,NA,NA,"[]","middle",2,"pos",6,34,1,4,1,2,4,1,"37725","32","female","woman","","caucasian","","No","",""
"35","610ad21c0586bfb21376e859","svTrial","survey",44,665830,"0.0-2.0-42.0","65553732575bb29198a888d7","65565bb849595ee8db0a9db6",3,"20101","Toyama_large_pos_5_1.jpg",NA,NA,NA,NA,NA,NA,NA,NA,NA,NA,NA,NA,NA,NA,NA,NA,"[]","small",2,"pos",5,35,5,3,1,2,4,1,"37725","32","female","woman","","caucasian","","No","",""
"36","610ad21c0586bfb21376e859","svTrial","survey",45,691011,"0.0-2.0-43.0","65553732575bb29198a888d7","65565bb849595ee8db0a9db6",3,"25147","Akita_small_sch_1_0.jpg",NA,NA,NA,NA,NA,NA,NA,NA,NA,NA,NA,NA,NA,NA,NA,NA,"[]","middle",2,"sch",1,36,4,2,1,3,3,1,"37725","32","female","woman","","caucasian","","No","",""
"37","610ad21c0586bfb21376e859","svTrial","survey",46,702629,"0.0-2.0-44.0","65553732575bb29198a888d7","65565bb849595ee8db0a9db6",3,"11596","Okinawa_middle_pos_6_0.jpg",NA,NA,NA,NA,NA,NA,NA,NA,NA,NA,NA,NA,NA,NA,NA,NA,"[]","large",1,"pos",6,37,1,1,1,3,1,1,"37725","32","female","woman","","caucasian","","No","",""
"38","610ad21c0586bfb21376e859","svTrial","survey",47,714091,"0.0-2.0-45.0","65553732575bb29198a888d7","65565bb849595ee8db0a9db6",3,"11437","Okinawa_large_pos_1_0.jpg",NA,NA,NA,NA,NA,NA,NA,NA,NA,NA,NA,NA,NA,NA,NA,NA,"[]","large",1,"sch",1,38,2,2,1,1,5,1,"37725","32","female","woman","","caucasian","","No","",""
"39","610ad21c0586bfb21376e859","svTrial","survey",48,727139,"0.0-2.0-46.0","65553732575bb29198a888d7","65565bb849595ee8db0a9db6",3,"13016","Akita_large_sch_7_3.jpg",NA,NA,NA,NA,NA,NA,NA,NA,NA,NA,NA,NA,NA,NA,NA,NA,"[]","large",2,"sch",7,39,5,2,1,1,1,1,"37725","32","female","woman","","caucasian","","No","",""
"40","610ad21c0586bfb21376e859","svTrial","survey",49,738020,"0.0-2.0-47.0","65553732575bb29198a888d7","65565bb849595ee8db0a9db6",3,"10855","Hokkaido_large_sch_4_0.jpg",NA,NA,NA,NA,NA,NA,NA,NA,NA,NA,NA,NA,NA,NA,NA,NA,"[]","small",1,"sch",4,40,4,2,1,2,1,1,"37725","32","female","woman","","caucasian","","No","",""
"41","610ad21c0586bfb21376e859","svTrial","survey",50,766079,"0.0-2.0-48.0","65553732575bb29198a888d7","65565bb849595ee8db0a9db6",3,"28030","Toyama_large_sch_4_2.jpg",NA,NA,NA,NA,NA,NA,NA,NA,NA,NA,NA,NA,NA,NA,NA,NA,"[]","small",2,"sch",4,41,5,3,1,1,1,1,"37725","32","female","woman","","caucasian","","No","",""
"42","610ad21c0586bfb21376e859","svTrial","survey",51,782182,"0.0-2.0-49.0","65553732575bb29198a888d7","65565bb849595ee8db0a9db6",3,"16054","Tokyo_middle_pos_5_2.jpg",NA,NA,NA,NA,NA,NA,NA,NA,NA,NA,NA,NA,NA,NA,NA,NA,"[]","small",1,"sch",5,42,5,3,2,4,4,1,"37725","32","female","woman","","caucasian","","No","",""
"43","610ad21c0586bfb21376e859","svTrial","survey",52,798218,"0.0-2.0-50.0","65553732575bb29198a888d7","65565bb849595ee8db0a9db6",3,"15999","Niigata_large_pos_9_3.jpg",NA,NA,NA,NA,NA,NA,NA,NA,NA,NA,NA,NA,NA,NA,NA,NA,"[]","small",2,"sch",9,43,2,2,1,3,NA,1,"37725","32","female","woman","","caucasian","","No","",""
"44","610ad21c0586bfb21376e859","svTrial","survey",53,811725,"0.0-2.0-51.0","65553732575bb29198a888d7","65565bb849595ee8db0a9db6",3,"13480","Kanagawa_small_pos_1_1.jpg",NA,NA,NA,NA,NA,NA,NA,NA,NA,NA,NA,NA,NA,NA,NA,NA,"[]","middle",1,"sch",1,44,1,2,1,2,3,1,"37725","32","female","woman","","caucasian","","No","",""
"45","610ad21c0586bfb21376e859","svTrial","survey",54,826979,"0.0-2.0-52.0","65553732575bb29198a888d7","65565bb849595ee8db0a9db6",3,"15231","Niigata_middle_pos_1_2.jpg",NA,NA,NA,NA,NA,NA,NA,NA,NA,NA,NA,NA,NA,NA,NA,NA,"[]","middle",2,"pos",1,45,2,2,1,3,3,1,"37725","32","female","woman","","caucasian","","No","",""
"46","610ad21c0586bfb21376e859","svTrial","survey",55,852956,"0.0-2.0-53.0","65553732575bb29198a888d7","65565bb849595ee8db0a9db6",3,"25935","Toyama_large_pos_12_0.jpg",NA,NA,NA,NA,NA,NA,NA,NA,NA,NA,NA,NA,NA,NA,NA,NA,"[]","large",2,"sch",12,46,2,2,1,2,2,1,"37725","32","female","woman","","caucasian","","No","",""
"47","610ad21c0586bfb21376e859","svTrial","survey",56,864875,"0.0-2.0-54.0","65553732575bb29198a888d7","65565bb849595ee8db0a9db6",3,"11891","Akita_middle_sch_6_0.jpg",NA,NA,NA,NA,NA,NA,NA,NA,NA,NA,NA,NA,NA,NA,NA,NA,"[]","small",2,"sch",6,47,1,1,1,1,4,1,"37725","32","female","woman","","caucasian","","No","",""
"48","610ad21c0586bfb21376e859","svTrial","survey",57,875581,"0.0-2.0-55.0","65553732575bb29198a888d7","65565bb849595ee8db0a9db6",3,"10685","Hokkaido_large_sch_11_2.jpg",NA,NA,NA,NA,NA,NA,NA,NA,NA,NA,NA,NA,NA,NA,NA,NA,"[]","large",1,"sch",11,48,2,2,1,2,3,1,"37725","32","female","woman","","caucasian","","No","",""
