"","subject_id","task","trial_type","trial_index","time_elapsed","internal_node_id","study_id","session_id","group","rt","stimulus","width","height","webaudio","browser","browser_version","mobile","os","fullscreen","vsync_rate","webcam","microphone","success","timeout","failed_images","failed_audio","failed_video","accuracy","size","culture","loct","number","document.id","ambiguous","objects","invisible","chaos","complex","passedChecks","zipcode","age","sex","gender","gender-self-describe","ethnicity","ethnicity-self-describe","outsideUS","outsideUS_years","surveyComments"
"1","612fde55d251a3547b8e5766","svTrial","survey",9,99761,"0.0-2.0-7.0","65553732575bb29198a888d7","65565bac2e7f7d2b8ae2add6",4,"22995","Okinawa_middle_sch_7_2.jpg",NA,NA,NA,NA,NA,NA,NA,NA,NA,NA,NA,NA,NA,NA,NA,NA,"[]","large",1,"pos",7,1,4,5,4,4,4,1,"83202","30","male","man","","caucasian","","Yes","2",""
"2","612fde55d251a3547b8e5766","svTrial","survey",10,115485,"0.0-2.0-8.0","65553732575bb29198a888d7","65565bac2e7f7d2b8ae2add6",4,"15700","Ishikawa_large_sch_9_0.jpg",NA,NA,NA,NA,NA,NA,NA,NA,NA,NA,NA,NA,NA,NA,NA,NA,"[]","large",2,"pos",9,2,4,4,4,4,3,1,"83202","30","male","man","","caucasian","","Yes","2",""
"3","612fde55d251a3547b8e5766","svTrial","survey",11,131957,"0.0-2.0-9.0","65553732575bb29198a888d7","65565bac2e7f7d2b8ae2add6",4,"16444","Niigata_large_pos_10_0.jpg",NA,NA,NA,NA,NA,NA,NA,NA,NA,NA,NA,NA,NA,NA,NA,NA,"[]","small",2,"pos",10,3,2,3,2,3,2,1,"83202","30","male","man","","caucasian","","Yes","2",""
"4","612fde55d251a3547b8e5766","svTrial","survey",12,153933,"0.0-2.0-10.0","65553732575bb29198a888d7","65565bac2e7f7d2b8ae2add6",4,"21953","Tokyo_middle_pos_8_1.jpg",NA,NA,NA,NA,NA,NA,NA,NA,NA,NA,NA,NA,NA,NA,NA,NA,"[]","large",1,"sch",8,4,4,3,3,4,4,1,"83202","30","male","man","","caucasian","","Yes","2",""
"5","612fde55d251a3547b8e5766","svTrial","survey",13,171490,"0.0-2.0-11.0","65553732575bb29198a888d7","65565bac2e7f7d2b8ae2add6",4,"17528","Ishikawa_large_pos_1_3.jpg",NA,NA,NA,NA,NA,NA,NA,NA,NA,NA,NA,NA,NA,NA,NA,NA,"[]","middle",2,"sch",1,5,2,2,2,2,2,1,"83202","30","male","man","","caucasian","","Yes","2",""
"6","612fde55d251a3547b8e5766","svTrial","survey",14,187149,"0.0-2.0-12.0","65553732575bb29198a888d7","65565bac2e7f7d2b8ae2add6",4,"15635","Toyama_small_pos_2_0.jpg",NA,NA,NA,NA,NA,NA,NA,NA,NA,NA,NA,NA,NA,NA,NA,NA,"[]","small",2,"sch",2,6,2,2,2,2,2,1,"83202","30","male","man","","caucasian","","Yes","2",""
"7","612fde55d251a3547b8e5766","svTrial","survey",15,201812,"0.0-2.0-13.0","65553732575bb29198a888d7","65565bac2e7f7d2b8ae2add6",4,"14637","Tokyo_small_pos_1_0.jpg",NA,NA,NA,NA,NA,NA,NA,NA,NA,NA,NA,NA,NA,NA,NA,NA,"[]","large",1,"pos",1,7,4,3,4,4,4,1,"83202","30","male","man","","caucasian","","Yes","2",""
"8","612fde55d251a3547b8e5766","svTrial","survey",16,220491,"0.0-2.0-14.0","65553732575bb29198a888d7","65565bac2e7f7d2b8ae2add6",4,"18660","Akita_large_sch_9_1.jpg",NA,NA,NA,NA,NA,NA,NA,NA,NA,NA,NA,NA,NA,NA,NA,NA,"[]","large",2,"pos",9,8,2,2,2,2,2,1,"83202","30","male","man","","caucasian","","Yes","2",""
"9","612fde55d251a3547b8e5766","svTrial","survey",17,234059,"0.0-2.0-15.0","65553732575bb29198a888d7","65565bac2e7f7d2b8ae2add6",4,"13544","Kanagawa_middle_pos_5_2.jpg",NA,NA,NA,NA,NA,NA,NA,NA,NA,NA,NA,NA,NA,NA,NA,NA,"[]","large",1,"pos",5,9,2,2,2,2,2,1,"83202","30","male","man","","caucasian","","Yes","2",""
"10","612fde55d251a3547b8e5766","svTrial","survey",18,253426,"0.0-2.0-16.0","65553732575bb29198a888d7","65565bac2e7f7d2b8ae2add6",4,"19347","Okinawa_small_pos_4_2.jpg",NA,NA,NA,NA,NA,NA,NA,NA,NA,NA,NA,NA,NA,NA,NA,NA,"[]","middle",1,"sch",4,10,2,1,1,2,2,1,"83202","30","male","man","","caucasian","","Yes","2",""
"11","612fde55d251a3547b8e5766","svTrial","survey",19,264635,"0.0-2.0-17.0","65553732575bb29198a888d7","65565bac2e7f7d2b8ae2add6",4,"11190","Tokyo_middle_sch_7_0.jpg",NA,NA,NA,NA,NA,NA,NA,NA,NA,NA,NA,NA,NA,NA,NA,NA,"[]","middle",1,"sch",7,11,2,2,2,2,2,1,"83202","30","male","man","","caucasian","","Yes","2",""
"12","612fde55d251a3547b8e5766","svTrial","survey",20,297683,"0.0-2.0-18.0","65553732575bb29198a888d7","65565bac2e7f7d2b8ae2add6",4,"33024","Ishikawa_large_pos_4_3.jpg",NA,NA,NA,NA,NA,NA,NA,NA,NA,NA,NA,NA,NA,NA,NA,NA,"[]","middle",2,"pos",4,12,2,3,3,2,2,1,"83202","30","male","man","","caucasian","","Yes","2",""
"13","612fde55d251a3547b8e5766","svTrial","survey",21,309530,"0.0-2.0-19.0","65553732575bb29198a888d7","65565bac2e7f7d2b8ae2add6",4,"11827","Kanagawa_small_sch_4_0.jpg",NA,NA,NA,NA,NA,NA,NA,NA,NA,NA,NA,NA,NA,NA,NA,NA,"[]","middle",1,"pos",4,13,2,3,2,2,2,1,"83202","30","male","man","","caucasian","","Yes","2",""
"14","612fde55d251a3547b8e5766","svTrial","survey",22,330133,"0.0-2.0-20.0","65553732575bb29198a888d7","65565bac2e7f7d2b8ae2add6",4,"20586","Kanagawa_large_sch_9_0.jpg",NA,NA,NA,NA,NA,NA,NA,NA,NA,NA,NA,NA,NA,NA,NA,NA,"[]","large",1,"pos",9,14,2,1,2,2,3,1,"83202","30","male","man","","caucasian","","Yes","2",""
"15","612fde55d251a3547b8e5766","svTrial","survey",23,343273,"0.0-2.0-21.0","65553732575bb29198a888d7","65565bac2e7f7d2b8ae2add6",4,"13114","Toyama_middle_sch_7_2.jpg",NA,NA,NA,NA,NA,NA,NA,NA,NA,NA,NA,NA,NA,NA,NA,NA,"[]","middle",2,"pos",7,15,4,2,1,1,1,1,"83202","30","male","man","","caucasian","","Yes","2",""
"16","612fde55d251a3547b8e5766","svTrial","survey",24,364895,"0.0-2.0-22.0","65553732575bb29198a888d7","65565bac2e7f7d2b8ae2add6",4,"21600","Ishikawa_large_sch_2_1.jpg",NA,NA,NA,NA,NA,NA,NA,NA,NA,NA,NA,NA,NA,NA,NA,NA,"[]","middle",2,"sch",2,16,4,4,3,5,3,1,"83202","30","male","man","","caucasian","","Yes","2",""
"17","612fde55d251a3547b8e5766","svTrial","survey",25,373184,"0.0-2.0-23.0","65553732575bb29198a888d7","65565bac2e7f7d2b8ae2add6",4,"8272","Ishikawa_middle_sch_1_0.jpg",NA,NA,NA,NA,NA,NA,NA,NA,NA,NA,NA,NA,NA,NA,NA,NA,"[]","small",2,"sch",1,17,2,2,2,2,2,1,"83202","30","male","man","","caucasian","","Yes","2",""
"18","612fde55d251a3547b8e5766","svTrial","survey",26,384264,"0.0-2.0-24.0","65553732575bb29198a888d7","65565bac2e7f7d2b8ae2add6",4,"11056","Kanagawa_middle_pos_8_1.jpg",NA,NA,NA,NA,NA,NA,NA,NA,NA,NA,NA,NA,NA,NA,NA,NA,"[]","middle",1,"sch",8,18,3,4,3,4,4,1,"83202","30","male","man","","caucasian","","Yes","2",""
"19","612fde55d251a3547b8e5766","svTrial","survey",27,405737,"0.0-2.0-25.0","65553732575bb29198a888d7","65565bac2e7f7d2b8ae2add6",4,"21450","Ishikawa_small_pos_3_0.jpg",NA,NA,NA,NA,NA,NA,NA,NA,NA,NA,NA,NA,NA,NA,NA,NA,"[]","middle",2,"pos",3,19,3,3,2,3,2,1,"83202","30","male","man","","caucasian","","Yes","2",""
"20","612fde55d251a3547b8e5766","svTrial","survey",28,420921,"0.0-2.0-26.0","65553732575bb29198a888d7","65565bac2e7f7d2b8ae2add6",4,"15167","Kanagawa_large_sch_2_1.jpg",NA,NA,NA,NA,NA,NA,NA,NA,NA,NA,NA,NA,NA,NA,NA,NA,"[]","large",1,"pos",2,20,4,2,4,2,3,1,"83202","30","male","man","","caucasian","","Yes","2",""
"21","612fde55d251a3547b8e5766","svTrial","survey",29,431959,"0.0-2.0-27.0","65553732575bb29198a888d7","65565bac2e7f7d2b8ae2add6",4,"11021","Hokkaido_large_pos_1_0.jpg",NA,NA,NA,NA,NA,NA,NA,NA,NA,NA,NA,NA,NA,NA,NA,NA,"[]","large",1,"sch",1,21,3,3,2,4,3,1,"83202","30","male","man","","caucasian","","Yes","2",""
"22","612fde55d251a3547b8e5766","svTrial","survey",30,446401,"0.0-2.0-28.0","65553732575bb29198a888d7","65565bac2e7f7d2b8ae2add6",4,"14422","Ishikawa_middle_sch_8_1.jpg",NA,NA,NA,NA,NA,NA,NA,NA,NA,NA,NA,NA,NA,NA,NA,NA,"[]","middle",2,"sch",8,22,3,3,4,3,2,1,"83202","30","male","man","","caucasian","","Yes","2",""
"23","612fde55d251a3547b8e5766","svTrial","survey",31,455345,"0.0-2.0-29.0","65553732575bb29198a888d7","65565bac2e7f7d2b8ae2add6",4,"8920","Akita_large_sch_6_3.jpg",NA,NA,NA,NA,NA,NA,NA,NA,NA,NA,NA,NA,NA,NA,NA,NA,"[]","large",2,"sch",6,23,1,1,1,1,1,1,"83202","30","male","man","","caucasian","","Yes","2",""
"24","612fde55d251a3547b8e5766","svTrial","survey",32,466665,"0.0-2.0-30.0","65553732575bb29198a888d7","65565bac2e7f7d2b8ae2add6",4,"11300","Ishikawa_middle_sch_2_1.jpg",NA,NA,NA,NA,NA,NA,NA,NA,NA,NA,NA,NA,NA,NA,NA,NA,"[]","middle",2,"pos",2,24,2,3,2,2,2,1,"83202","30","male","man","","caucasian","","Yes","2",""
"25","612fde55d251a3547b8e5766","svTrial","survey",34,486751,"0.0-2.0-32.0","65553732575bb29198a888d7","65565bac2e7f7d2b8ae2add6",4,"14447","Akita_small_sch_3_0.jpg",NA,NA,NA,NA,NA,NA,NA,NA,NA,NA,NA,NA,NA,NA,NA,NA,"[]","large",2,"pos",3,25,4,3,2,4,3,1,"83202","30","male","man","","caucasian","","Yes","2",""
"26","612fde55d251a3547b8e5766","svTrial","survey",35,498109,"0.0-2.0-33.0","65553732575bb29198a888d7","65565bac2e7f7d2b8ae2add6",4,"11335","Tokyo_large_pos_3_0.jpg",NA,NA,NA,NA,NA,NA,NA,NA,NA,NA,NA,NA,NA,NA,NA,NA,"[]","large",1,"sch",3,26,2,2,2,1,1,1,"83202","30","male","man","","caucasian","","Yes","2",""
"27","612fde55d251a3547b8e5766","svTrial","survey",36,515149,"0.0-2.0-34.0","65553732575bb29198a888d7","65565bac2e7f7d2b8ae2add6",4,"17018","Okinawa_middle_pos_2_2.jpg",NA,NA,NA,NA,NA,NA,NA,NA,NA,NA,NA,NA,NA,NA,NA,NA,"[]","small",1,"sch",2,27,3,2,4,2,2,1,"83202","30","male","man","","caucasian","","Yes","2",""
"28","612fde55d251a3547b8e5766","svTrial","survey",37,528664,"0.0-2.0-35.0","65553732575bb29198a888d7","65565bac2e7f7d2b8ae2add6",4,"13498","Niigata_middle_pos_5_2.jpg",NA,NA,NA,NA,NA,NA,NA,NA,NA,NA,NA,NA,NA,NA,NA,NA,"[]","middle",2,"pos",5,28,3,3,2,3,2,1,"83202","30","male","man","","caucasian","","Yes","2",""
"29","612fde55d251a3547b8e5766","svTrial","survey",38,564830,"0.0-2.0-36.0","65553732575bb29198a888d7","65565bac2e7f7d2b8ae2add6",4,"36151","Kanagawa_middle_pos_3_2.jpg",NA,NA,NA,NA,NA,NA,NA,NA,NA,NA,NA,NA,NA,NA,NA,NA,"[]","large",1,"pos",3,29,3,4,2,3,3,1,"83202","30","male","man","","caucasian","","Yes","2",""
"30","612fde55d251a3547b8e5766","svTrial","survey",39,592763,"0.0-2.0-37.0","65553732575bb29198a888d7","65565bac2e7f7d2b8ae2add6",4,"27914","Tokyo_large_sch_12_2.jpg",NA,NA,NA,NA,NA,NA,NA,NA,NA,NA,NA,NA,NA,NA,NA,NA,"[]","middle",1,"sch",12,30,5,5,3,3,3,1,"83202","30","male","man","","caucasian","","Yes","2",""
"31","612fde55d251a3547b8e5766","svTrial","survey",40,607362,"0.0-2.0-38.0","65553732575bb29198a888d7","65565bac2e7f7d2b8ae2add6",4,"14577","Okinawa_large_sch_7_1.jpg",NA,NA,NA,NA,NA,NA,NA,NA,NA,NA,NA,NA,NA,NA,NA,NA,"[]","small",1,"pos",7,31,3,2,3,3,2,1,"83202","30","male","man","","caucasian","","Yes","2",""
"32","612fde55d251a3547b8e5766","svTrial","survey",41,621346,"0.0-2.0-39.0","65553732575bb29198a888d7","65565bac2e7f7d2b8ae2add6",4,"13962","Ishikawa_large_sch_12_2.jpg",NA,NA,NA,NA,NA,NA,NA,NA,NA,NA,NA,NA,NA,NA,NA,NA,"[]","middle",2,"pos",12,32,3,2,2,2,2,1,"83202","30","male","man","","caucasian","","Yes","2",""
"33","612fde55d251a3547b8e5766","svTrial","survey",42,637437,"0.0-2.0-40.0","65553732575bb29198a888d7","65565bac2e7f7d2b8ae2add6",4,"16066","Okinawa_large_pos_8_3.jpg",NA,NA,NA,NA,NA,NA,NA,NA,NA,NA,NA,NA,NA,NA,NA,NA,"[]","middle",1,"pos",8,33,4,3,2,3,2,1,"83202","30","male","man","","caucasian","","Yes","2",""
"34","612fde55d251a3547b8e5766","svTrial","survey",43,649518,"0.0-2.0-41.0","65553732575bb29198a888d7","65565bac2e7f7d2b8ae2add6",4,"12063","Hokkaido_middle_sch_7_1.jpg",NA,NA,NA,NA,NA,NA,NA,NA,NA,NA,NA,NA,NA,NA,NA,NA,"[]","small",1,"pos",7,34,4,4,3,4,2,1,"83202","30","male","man","","caucasian","","Yes","2",""
"35","612fde55d251a3547b8e5766","svTrial","survey",44,670361,"0.0-2.0-42.0","65553732575bb29198a888d7","65565bac2e7f7d2b8ae2add6",4,"20828","Ishikawa_middle_sch_5_1.jpg",NA,NA,NA,NA,NA,NA,NA,NA,NA,NA,NA,NA,NA,NA,NA,NA,"[]","small",2,"sch",5,35,3,2,3,2,2,1,"83202","30","male","man","","caucasian","","Yes","2",""
"36","612fde55d251a3547b8e5766","svTrial","survey",45,692896,"0.0-2.0-43.0","65553732575bb29198a888d7","65565bac2e7f7d2b8ae2add6",4,"22513","Tokyo_small_pos_4_2.jpg",NA,NA,NA,NA,NA,NA,NA,NA,NA,NA,NA,NA,NA,NA,NA,NA,"[]","large",1,"sch",4,36,4,4,2,2,2,1,"83202","30","male","man","","caucasian","","Yes","2",""
"37","612fde55d251a3547b8e5766","svTrial","survey",46,706775,"0.0-2.0-44.0","65553732575bb29198a888d7","65565bac2e7f7d2b8ae2add6",4,"13860","Akita_middle_sch_5_1.jpg",NA,NA,NA,NA,NA,NA,NA,NA,NA,NA,NA,NA,NA,NA,NA,NA,"[]","small",2,"pos",5,37,2,2,2,1,2,1,"83202","30","male","man","","caucasian","","Yes","2",""
"38","612fde55d251a3547b8e5766","svTrial","survey",47,721993,"0.0-2.0-45.0","65553732575bb29198a888d7","65565bac2e7f7d2b8ae2add6",4,"15196","Hokkaido_middle_pos_8_1.jpg",NA,NA,NA,NA,NA,NA,NA,NA,NA,NA,NA,NA,NA,NA,NA,NA,"[]","middle",1,"pos",8,38,3,3,2,2,2,1,"83202","30","male","man","","caucasian","","Yes","2",""
"39","612fde55d251a3547b8e5766","svTrial","survey",48,733873,"0.0-2.0-46.0","65553732575bb29198a888d7","65565bac2e7f7d2b8ae2add6",4,"11860","Akita_large_sch_11_2.jpg",NA,NA,NA,NA,NA,NA,NA,NA,NA,NA,NA,NA,NA,NA,NA,NA,"[]","small",2,"sch",11,39,3,3,2,2,2,1,"83202","30","male","man","","caucasian","","Yes","2",""
"40","612fde55d251a3547b8e5766","svTrial","survey",49,748442,"0.0-2.0-47.0","65553732575bb29198a888d7","65565bac2e7f7d2b8ae2add6",4,"14554","Ishikawa_middle_sch_4_3.jpg",NA,NA,NA,NA,NA,NA,NA,NA,NA,NA,NA,NA,NA,NA,NA,NA,"[]","middle",2,"sch",4,40,2,2,1,1,1,1,"83202","30","male","man","","caucasian","","Yes","2",""
"41","612fde55d251a3547b8e5766","svTrial","survey",50,758640,"0.0-2.0-48.0","65553732575bb29198a888d7","65565bac2e7f7d2b8ae2add6",4,"10176","Tokyo_middle_sch_3_2.jpg",NA,NA,NA,NA,NA,NA,NA,NA,NA,NA,NA,NA,NA,NA,NA,NA,"[]","middle",1,"pos",3,41,2,3,3,2,2,1,"83202","30","male","man","","caucasian","","Yes","2",""
"42","612fde55d251a3547b8e5766","svTrial","survey",51,774197,"0.0-2.0-49.0","65553732575bb29198a888d7","65565bac2e7f7d2b8ae2add6",4,"15539","Akita_small_pos_4_3.jpg",NA,NA,NA,NA,NA,NA,NA,NA,NA,NA,NA,NA,NA,NA,NA,NA,"[]","small",2,"pos",4,42,4,4,3,2,3,1,"83202","30","male","man","","caucasian","","Yes","2",""
"43","612fde55d251a3547b8e5766","svTrial","survey",52,813545,"0.0-2.0-50.0","65553732575bb29198a888d7","65565bac2e7f7d2b8ae2add6",4,"39353","Kanagawa_large_pos_9_2.jpg",NA,NA,NA,NA,NA,NA,NA,NA,NA,NA,NA,NA,NA,NA,NA,NA,"[]","small",1,"pos",9,43,3,3,4,2,2,1,"83202","30","male","man","","caucasian","","Yes","2",""
"44","612fde55d251a3547b8e5766","svTrial","survey",53,826866,"0.0-2.0-51.0","65553732575bb29198a888d7","65565bac2e7f7d2b8ae2add6",4,"13301","Niigata_large_sch_5_0.jpg",NA,NA,NA,NA,NA,NA,NA,NA,NA,NA,NA,NA,NA,NA,NA,NA,"[]","small",2,"pos",5,44,3,3,2,2,2,1,"83202","30","male","man","","caucasian","","Yes","2",""
"45","612fde55d251a3547b8e5766","svTrial","survey",54,848951,"0.0-2.0-52.0","65553732575bb29198a888d7","65565bac2e7f7d2b8ae2add6",4,"22068","Okinawa_large_pos_6_3.jpg",NA,NA,NA,NA,NA,NA,NA,NA,NA,NA,NA,NA,NA,NA,NA,NA,"[]","middle",1,"pos",6,45,3,4,4,2,3,1,"83202","30","male","man","","caucasian","","Yes","2",""
"46","612fde55d251a3547b8e5766","svTrial","survey",55,895402,"0.0-2.0-53.0","65553732575bb29198a888d7","65565bac2e7f7d2b8ae2add6",4,"46437","Tokyo_middle_pos_7_1.jpg",NA,NA,NA,NA,NA,NA,NA,NA,NA,NA,NA,NA,NA,NA,NA,NA,"[]","middle",1,"pos",7,46,2,2,2,1,2,1,"83202","30","male","man","","caucasian","","Yes","2",""
"47","612fde55d251a3547b8e5766","svTrial","survey",56,903309,"0.0-2.0-54.0","65553732575bb29198a888d7","65565bac2e7f7d2b8ae2add6",4,"7884","Toyama_middle_sch_3_1.jpg",NA,NA,NA,NA,NA,NA,NA,NA,NA,NA,NA,NA,NA,NA,NA,NA,"[]","large",2,"sch",3,47,2,2,1,2,2,1,"83202","30","male","man","","caucasian","","Yes","2",""
"48","612fde55d251a3547b8e5766","svTrial","survey",57,913149,"0.0-2.0-55.0","65553732575bb29198a888d7","65565bac2e7f7d2b8ae2add6",4,"9820","Akita_large_pos_3_2.jpg",NA,NA,NA,NA,NA,NA,NA,NA,NA,NA,NA,NA,NA,NA,NA,NA,"[]","middle",2,"pos",3,48,2,3,2,2,2,1,"83202","30","male","man","","caucasian","","Yes","2",""
