"","subject_id","task","trial_type","trial_index","time_elapsed","internal_node_id","study_id","session_id","group","rt","stimulus","width","height","webaudio","browser","browser_version","mobile","os","fullscreen","vsync_rate","webcam","microphone","success","timeout","failed_images","failed_audio","failed_video","accuracy","size","culture","loct","number","document.id","ambiguous","objects","invisible","chaos","complex","passedChecks","zipcode","age","sex","gender","gender-self-describe","ethnicity","ethnicity-self-describe","outsideUS","outsideUS_years","surveyComments"
"1","6135752aa4ee5158b0708670","svTrial","survey",8,275518,"0.0-2.0-6.0","65553732575bb29198a888d7","65565dd1023531d49623b70e",1,"60899","Akita_middle_sch_4_1.jpg",NA,NA,NA,NA,NA,NA,NA,NA,NA,NA,NA,NA,NA,NA,NA,NA,"[]","small",2,"sch",4,1,3,1,3,1,1,1,"","30306","male","man","","caucasian","","No","",""
"2","6135752aa4ee5158b0708670","svTrial","survey",9,318903,"0.0-2.0-7.0","65553732575bb29198a888d7","65565dd1023531d49623b70e",1,"43360","Toyama_large_pos_10_1.jpg",NA,NA,NA,NA,NA,NA,NA,NA,NA,NA,NA,NA,NA,NA,NA,NA,"[]","small",2,"sch",10,2,2,1,3,1,1,1,"","30306","male","man","","caucasian","","No","",""
"3","6135752aa4ee5158b0708670","svTrial","survey",10,380581,"0.0-2.0-8.0","65553732575bb29198a888d7","65565dd1023531d49623b70e",1,"61658","Niigata_middle_sch_8_3.jpg",NA,NA,NA,NA,NA,NA,NA,NA,NA,NA,NA,NA,NA,NA,NA,NA,"[]","middle",2,"pos",8,3,3,2,3,2,2,1,"","30306","male","man","","caucasian","","No","",""
"4","6135752aa4ee5158b0708670","svTrial","survey",11,408163,"0.0-2.0-9.0","65553732575bb29198a888d7","65565dd1023531d49623b70e",1,"27563","Niigata_middle_sch_7_2.jpg",NA,NA,NA,NA,NA,NA,NA,NA,NA,NA,NA,NA,NA,NA,NA,NA,"[]","middle",2,"pos",7,4,2,3,2,2,3,1,"","30306","male","man","","caucasian","","No","",""
"5","6135752aa4ee5158b0708670","svTrial","survey",12,459619,"0.0-2.0-10.0","65553732575bb29198a888d7","65565dd1023531d49623b70e",1,"51435","Hokkaido_middle_pos_6_2.jpg",NA,NA,NA,NA,NA,NA,NA,NA,NA,NA,NA,NA,NA,NA,NA,NA,"[]","large",1,"sch",6,5,1,2,1,1,1,1,"","30306","male","man","","caucasian","","No","",""
"6","6135752aa4ee5158b0708670","svTrial","survey",13,1726900,"0.0-2.0-11.0","65553732575bb29198a888d7","65565dd1023531d49623b70e",1,"1267262","Hokkaido_middle_pos_2_1.jpg",NA,NA,NA,NA,NA,NA,NA,NA,NA,NA,NA,NA,NA,NA,NA,NA,"[]","small",1,"pos",2,6,4,5,2,2,3,1,"","30306","male","man","","caucasian","","No","",""
"7","6135752aa4ee5158b0708670","svTrial","survey",14,1816386,"0.0-2.0-12.0","65553732575bb29198a888d7","65565dd1023531d49623b70e",1,"89469","Niigata_large_sch_9_2.jpg",NA,NA,NA,NA,NA,NA,NA,NA,NA,NA,NA,NA,NA,NA,NA,NA,"[]","middle",2,"sch",9,7,5,3,3,4,3,1,"","30306","male","man","","caucasian","","No","",""
"8","6135752aa4ee5158b0708670","svTrial","survey",15,1835419,"0.0-2.0-13.0","65553732575bb29198a888d7","65565dd1023531d49623b70e",1,"19015","Okinawa_large_sch_11_1.jpg",NA,NA,NA,NA,NA,NA,NA,NA,NA,NA,NA,NA,NA,NA,NA,NA,"[]","middle",1,"pos",11,8,2,3,5,1,2,1,"","30306","male","man","","caucasian","","No","",""
"9","6135752aa4ee5158b0708670","svTrial","survey",16,1846084,"0.0-2.0-14.0","65553732575bb29198a888d7","65565dd1023531d49623b70e",1,"10641","Kanagawa_large_pos_12_1.jpg",NA,NA,NA,NA,NA,NA,NA,NA,NA,NA,NA,NA,NA,NA,NA,NA,"[]","middle",1,"sch",12,9,3,2,2,1,2,1,"","30306","male","man","","caucasian","","No","",""
"10","6135752aa4ee5158b0708670","svTrial","survey",17,1857885,"0.0-2.0-15.0","65553732575bb29198a888d7","65565dd1023531d49623b70e",1,"11782","Okinawa_large_sch_6_0.jpg",NA,NA,NA,NA,NA,NA,NA,NA,NA,NA,NA,NA,NA,NA,NA,NA,"[]","large",1,"sch",6,10,1,4,4,2,5,1,"","30306","male","man","","caucasian","","No","",""
"11","6135752aa4ee5158b0708670","svTrial","survey",18,1901102,"0.0-2.0-16.0","65553732575bb29198a888d7","65565dd1023531d49623b70e",1,"43198","Tokyo_large_sch_9_1.jpg",NA,NA,NA,NA,NA,NA,NA,NA,NA,NA,NA,NA,NA,NA,NA,NA,"[]","middle",1,"sch",9,11,4,4,3,1,3,1,"","30306","male","man","","caucasian","","No","",""
"12","6135752aa4ee5158b0708670","svTrial","survey",19,1924684,"0.0-2.0-17.0","65553732575bb29198a888d7","65565dd1023531d49623b70e",1,"23557","Niigata_small_sch_4_2.jpg",NA,NA,NA,NA,NA,NA,NA,NA,NA,NA,NA,NA,NA,NA,NA,NA,"[]","large",2,"sch",4,12,1,1,3,1,1,1,"","30306","male","man","","caucasian","","No","",""
"13","6135752aa4ee5158b0708670","svTrial","survey",20,1934203,"0.0-2.0-18.0","65553732575bb29198a888d7","65565dd1023531d49623b70e",1,"9502","Niigata_middle_sch_2_3.jpg",NA,NA,NA,NA,NA,NA,NA,NA,NA,NA,NA,NA,NA,NA,NA,NA,"[]","large",2,"pos",2,13,1,1,1,1,1,1,"","30306","male","man","","caucasian","","No","",""
"14","6135752aa4ee5158b0708670","svTrial","survey",21,2103043,"0.0-2.0-19.0","65553732575bb29198a888d7","65565dd1023531d49623b70e",1,"168822","Tokyo_large_pos_4_2.jpg",NA,NA,NA,NA,NA,NA,NA,NA,NA,NA,NA,NA,NA,NA,NA,NA,"[]","large",1,"pos",4,14,3,1,5,5,5,1,"","30306","male","man","","caucasian","","No","",""
"15","6135752aa4ee5158b0708670","svTrial","survey",22,2140421,"0.0-2.0-20.0","65553732575bb29198a888d7","65565dd1023531d49623b70e",1,"37357","Akita_large_sch_2_3.jpg",NA,NA,NA,NA,NA,NA,NA,NA,NA,NA,NA,NA,NA,NA,NA,NA,"[]","middle",2,"sch",2,15,5,5,5,3,4,1,"","30306","male","man","","caucasian","","No","",""
"16","6135752aa4ee5158b0708670","svTrial","survey",23,2160692,"0.0-2.0-21.0","65553732575bb29198a888d7","65565dd1023531d49623b70e",1,"20250","Niigata_large_sch_10_2.jpg",NA,NA,NA,NA,NA,NA,NA,NA,NA,NA,NA,NA,NA,NA,NA,NA,"[]","large",2,"sch",10,16,2,3,3,3,1,1,"","30306","male","man","","caucasian","","No","",""
"17","6135752aa4ee5158b0708670","svTrial","survey",24,2304219,"0.0-2.0-22.0","65553732575bb29198a888d7","65565dd1023531d49623b70e",1,"143508","Toyama_middle_sch_5_1.jpg",NA,NA,NA,NA,NA,NA,NA,NA,NA,NA,NA,NA,NA,NA,NA,NA,"[]","middle",2,"sch",5,17,5,5,5,4,5,1,"","30306","male","man","","caucasian","","No","",""
"18","6135752aa4ee5158b0708670","svTrial","survey",25,2314587,"0.0-2.0-23.0","65553732575bb29198a888d7","65565dd1023531d49623b70e",1,"10349","Niigata_large_sch_2_0.jpg",NA,NA,NA,NA,NA,NA,NA,NA,NA,NA,NA,NA,NA,NA,NA,NA,"[]","middle",2,"sch",2,18,5,5,5,5,5,1,"","30306","male","man","","caucasian","","No","",""
"19","6135752aa4ee5158b0708670","svTrial","survey",26,2359507,"0.0-2.0-24.0","65553732575bb29198a888d7","65565dd1023531d49623b70e",1,"44903","Niigata_small_sch_1_3.jpg",NA,NA,NA,NA,NA,NA,NA,NA,NA,NA,NA,NA,NA,NA,NA,NA,"[]","middle",2,"sch",1,19,2,1,1,1,1,1,"","30306","male","man","","caucasian","","No","",""
"20","6135752aa4ee5158b0708670","svTrial","survey",27,2387163,"0.0-2.0-25.0","65553732575bb29198a888d7","65565dd1023531d49623b70e",1,"27639","Hokkaido_large_sch_12_1.jpg",NA,NA,NA,NA,NA,NA,NA,NA,NA,NA,NA,NA,NA,NA,NA,NA,"[]","small",1,"sch",12,20,4,2,3,1,2,1,"","30306","male","man","","caucasian","","No","",""
"21","6135752aa4ee5158b0708670","svTrial","survey",28,2399404,"0.0-2.0-26.0","65553732575bb29198a888d7","65565dd1023531d49623b70e",1,"12220","Ishikawa_large_pos_11_3.jpg",NA,NA,NA,NA,NA,NA,NA,NA,NA,NA,NA,NA,NA,NA,NA,NA,"[]","middle",2,"sch",11,21,2,3,3,2,2,1,"","30306","male","man","","caucasian","","No","",""
"22","6135752aa4ee5158b0708670","svTrial","survey",29,2415051,"0.0-2.0-27.0","65553732575bb29198a888d7","65565dd1023531d49623b70e",1,"15627","Ishikawa_middle_pos_3_1.jpg",NA,NA,NA,NA,NA,NA,NA,NA,NA,NA,NA,NA,NA,NA,NA,NA,"[]","middle",2,"sch",3,22,3,2,1,1,2,1,"","30306","male","man","","caucasian","","No","",""
"23","6135752aa4ee5158b0708670","svTrial","survey",30,2529323,"0.0-2.0-28.0","65553732575bb29198a888d7","65565dd1023531d49623b70e",1,"114255","Toyama_middle_pos_8_3.jpg",NA,NA,NA,NA,NA,NA,NA,NA,NA,NA,NA,NA,NA,NA,NA,NA,"[]","middle",2,"pos",8,23,3,3,1,2,2,1,"","30306","male","man","","caucasian","","No","",""
"24","6135752aa4ee5158b0708670","svTrial","survey",31,2538627,"0.0-2.0-29.0","65553732575bb29198a888d7","65565dd1023531d49623b70e",1,"9284","Kanagawa_large_pos_10_1.jpg",NA,NA,NA,NA,NA,NA,NA,NA,NA,NA,NA,NA,NA,NA,NA,NA,"[]","small",1,"pos",10,24,3,2,3,1,2,1,"","30306","male","man","","caucasian","","No","",""
"25","6135752aa4ee5158b0708670","svTrial","survey",33,2556228,"0.0-2.0-31.0","65553732575bb29198a888d7","65565dd1023531d49623b70e",1,"8301","Toyama_small_pos_3_1.jpg",NA,NA,NA,NA,NA,NA,NA,NA,NA,NA,NA,NA,NA,NA,NA,NA,"[]","large",2,"sch",3,25,2,2,4,4,3,1,"","30306","male","man","","caucasian","","No","",""
"26","6135752aa4ee5158b0708670","svTrial","survey",34,2578651,"0.0-2.0-32.0","65553732575bb29198a888d7","65565dd1023531d49623b70e",1,"22405","Tokyo_middle_sch_5_2.jpg",NA,NA,NA,NA,NA,NA,NA,NA,NA,NA,NA,NA,NA,NA,NA,NA,"[]","small",1,"sch",5,26,5,5,5,3,5,1,"","30306","male","man","","caucasian","","No","",""
"27","6135752aa4ee5158b0708670","svTrial","survey",35,2599635,"0.0-2.0-33.0","65553732575bb29198a888d7","65565dd1023531d49623b70e",1,"20967","Niigata_middle_pos_3_3.jpg",NA,NA,NA,NA,NA,NA,NA,NA,NA,NA,NA,NA,NA,NA,NA,NA,"[]","large",2,"pos",3,27,2,1,2,1,2,1,"","30306","male","man","","caucasian","","No","",""
"28","6135752aa4ee5158b0708670","svTrial","survey",36,2678187,"0.0-2.0-34.0","65553732575bb29198a888d7","65565dd1023531d49623b70e",1,"78531","Tokyo_small_pos_3_3.jpg",NA,NA,NA,NA,NA,NA,NA,NA,NA,NA,NA,NA,NA,NA,NA,NA,"[]","middle",1,"sch",3,28,3,1,2,2,3,1,"","30306","male","man","","caucasian","","No","",""
"29","6135752aa4ee5158b0708670","svTrial","survey",37,2685980,"0.0-2.0-35.0","65553732575bb29198a888d7","65565dd1023531d49623b70e",1,"7775","Niigata_large_sch_11_1.jpg",NA,NA,NA,NA,NA,NA,NA,NA,NA,NA,NA,NA,NA,NA,NA,NA,"[]","middle",2,"pos",11,29,4,4,4,2,5,1,"","30306","male","man","","caucasian","","No","",""
"30","6135752aa4ee5158b0708670","svTrial","survey",38,2693572,"0.0-2.0-36.0","65553732575bb29198a888d7","65565dd1023531d49623b70e",1,"7568","Tokyo_large_sch_10_1.jpg",NA,NA,NA,NA,NA,NA,NA,NA,NA,NA,NA,NA,NA,NA,NA,NA,"[]","middle",1,"pos",10,30,1,1,1,1,1,1,"","30306","male","man","","caucasian","","No","",""
"31","6135752aa4ee5158b0708670","svTrial","survey",40,2708019,"0.0-2.0-38.0","65553732575bb29198a888d7","65565dd1023531d49623b70e",1,"7778","Hokkaido_large_pos_11_0.jpg",NA,NA,NA,NA,NA,NA,NA,NA,NA,NA,NA,NA,NA,NA,NA,NA,"[]","small",1,"pos",11,31,4,4,4,4,4,1,"","30306","male","man","","caucasian","","No","",""
"32","6135752aa4ee5158b0708670","svTrial","survey",41,2717316,"0.0-2.0-39.0","65553732575bb29198a888d7","65565dd1023531d49623b70e",1,"9280","Kanagawa_middle_pos_7_0.jpg",NA,NA,NA,NA,NA,NA,NA,NA,NA,NA,NA,NA,NA,NA,NA,NA,"[]","middle",1,"sch",7,32,5,5,5,5,5,1,"","30306","male","man","","caucasian","","No","",""
"33","6135752aa4ee5158b0708670","svTrial","survey",42,2736906,"0.0-2.0-40.0","65553732575bb29198a888d7","65565dd1023531d49623b70e",1,"19572","Tokyo_large_pos_1_2.jpg",NA,NA,NA,NA,NA,NA,NA,NA,NA,NA,NA,NA,NA,NA,NA,NA,"[]","large",1,"pos",1,33,2,2,2,2,2,1,"","30306","male","man","","caucasian","","No","",""
"34","6135752aa4ee5158b0708670","svTrial","survey",43,2743011,"0.0-2.0-41.0","65553732575bb29198a888d7","65565dd1023531d49623b70e",1,"6085","Tokyo_large_sch_11_1.jpg",NA,NA,NA,NA,NA,NA,NA,NA,NA,NA,NA,NA,NA,NA,NA,NA,"[]","small",1,"sch",11,34,4,4,4,3,5,1,"","30306","male","man","","caucasian","","No","",""
"35","6135752aa4ee5158b0708670","svTrial","survey",44,2758611,"0.0-2.0-42.0","65553732575bb29198a888d7","65565dd1023531d49623b70e",1,"15583","Kanagawa_small_sch_2_1.jpg",NA,NA,NA,NA,NA,NA,NA,NA,NA,NA,NA,NA,NA,NA,NA,NA,"[]","large",1,"sch",2,35,4,2,3,2,2,1,"","30306","male","man","","caucasian","","No","",""
"36","6135752aa4ee5158b0708670","svTrial","survey",45,2895772,"0.0-2.0-43.0","65553732575bb29198a888d7","65565dd1023531d49623b70e",1,"137141","Hokkaido_large_sch_1_0.jpg",NA,NA,NA,NA,NA,NA,NA,NA,NA,NA,NA,NA,NA,NA,NA,NA,"[]","large",1,"sch",1,36,2,1,3,2,1,1,"","30306","male","man","","caucasian","","No","",""
"37","6135752aa4ee5158b0708670","svTrial","survey",46,2901366,"0.0-2.0-44.0","65553732575bb29198a888d7","65565dd1023531d49623b70e",1,"5577","Tokyo_large_pos_12_1.jpg",NA,NA,NA,NA,NA,NA,NA,NA,NA,NA,NA,NA,NA,NA,NA,NA,"[]","middle",1,"pos",12,37,5,1,4,3,4,1,"","30306","male","man","","caucasian","","No","",""
"38","6135752aa4ee5158b0708670","svTrial","survey",47,2906963,"0.0-2.0-45.0","65553732575bb29198a888d7","65565dd1023531d49623b70e",1,"5578","Okinawa_large_pos_12_1.jpg",NA,NA,NA,NA,NA,NA,NA,NA,NA,NA,NA,NA,NA,NA,NA,NA,"[]","large",1,"sch",12,38,4,3,2,2,4,1,"","30306","male","man","","caucasian","","No","",""
"39","6135752aa4ee5158b0708670","svTrial","survey",48,2916715,"0.0-2.0-46.0","65553732575bb29198a888d7","65565dd1023531d49623b70e",1,"9735","Kanagawa_middle_sch_6_3.jpg",NA,NA,NA,NA,NA,NA,NA,NA,NA,NA,NA,NA,NA,NA,NA,NA,"[]","small",1,"sch",6,39,5,5,5,5,5,1,"","30306","male","man","","caucasian","","No","",""
"40","6135752aa4ee5158b0708670","svTrial","survey",49,2923338,"0.0-2.0-47.0","65553732575bb29198a888d7","65565dd1023531d49623b70e",1,"6608","Kanagawa_large_pos_1_0.jpg",NA,NA,NA,NA,NA,NA,NA,NA,NA,NA,NA,NA,NA,NA,NA,NA,"[]","large",1,"sch",1,40,4,4,5,4,4,1,"","30306","male","man","","caucasian","","No","",""
"41","6135752aa4ee5158b0708670","svTrial","survey",50,2928979,"0.0-2.0-48.0","65553732575bb29198a888d7","65565dd1023531d49623b70e",1,"5625","Ishikawa_middle_pos_2_0.jpg",NA,NA,NA,NA,NA,NA,NA,NA,NA,NA,NA,NA,NA,NA,NA,NA,"[]","middle",2,"sch",2,41,4,3,3,4,2,1,"","30306","male","man","","caucasian","","No","",""
"42","6135752aa4ee5158b0708670","svTrial","survey",51,2933900,"0.0-2.0-49.0","65553732575bb29198a888d7","65565dd1023531d49623b70e",1,"4905","Niigata_large_sch_1_1.jpg",NA,NA,NA,NA,NA,NA,NA,NA,NA,NA,NA,NA,NA,NA,NA,NA,"[]","middle",2,"pos",1,42,5,3,4,4,4,1,"","30306","male","man","","caucasian","","No","",""
"43","6135752aa4ee5158b0708670","svTrial","survey",52,2938852,"0.0-2.0-50.0","65553732575bb29198a888d7","65565dd1023531d49623b70e",1,"4934","Toyama_large_sch_11_2.jpg",NA,NA,NA,NA,NA,NA,NA,NA,NA,NA,NA,NA,NA,NA,NA,NA,"[]","middle",2,"sch",11,43,4,5,4,2,3,1,"","30306","male","man","","caucasian","","No","",""
"44","6135752aa4ee5158b0708670","svTrial","survey",53,2976970,"0.0-2.0-51.0","65553732575bb29198a888d7","65565dd1023531d49623b70e",1,"38102","Hokkaido_large_pos_3_1.jpg",NA,NA,NA,NA,NA,NA,NA,NA,NA,NA,NA,NA,NA,NA,NA,NA,"[]","middle",1,"pos",3,44,4,3,4,4,4,1,"","30306","male","man","","caucasian","","No","",""
"45","6135752aa4ee5158b0708670","svTrial","survey",54,2982291,"0.0-2.0-52.0","65553732575bb29198a888d7","65565dd1023531d49623b70e",1,"5304","Akita_large_pos_2_0.jpg",NA,NA,NA,NA,NA,NA,NA,NA,NA,NA,NA,NA,NA,NA,NA,NA,"[]","middle",2,"pos",2,45,3,2,4,4,4,1,"","30306","male","man","","caucasian","","No","",""
"46","6135752aa4ee5158b0708670","svTrial","survey",55,2987698,"0.0-2.0-53.0","65553732575bb29198a888d7","65565dd1023531d49623b70e",1,"5389","Toyama_large_pos_7_2.jpg",NA,NA,NA,NA,NA,NA,NA,NA,NA,NA,NA,NA,NA,NA,NA,NA,"[]","large",2,"sch",7,46,3,1,3,3,2,1,"","30306","male","man","","caucasian","","No","",""
"47","6135752aa4ee5158b0708670","svTrial","survey",56,2994475,"0.0-2.0-54.0","65553732575bb29198a888d7","65565dd1023531d49623b70e",1,"6759","Akita_small_sch_4_1.jpg",NA,NA,NA,NA,NA,NA,NA,NA,NA,NA,NA,NA,NA,NA,NA,NA,"[]","large",2,"sch",4,47,3,4,2,3,3,1,"","30306","male","man","","caucasian","","No","",""
"48","6135752aa4ee5158b0708670","svTrial","survey",57,2998635,"0.0-2.0-55.0","65553732575bb29198a888d7","65565dd1023531d49623b70e",1,"4144","Okinawa_large_pos_10_1.jpg",NA,NA,NA,NA,NA,NA,NA,NA,NA,NA,NA,NA,NA,NA,NA,NA,"[]","middle",1,"sch",10,48,3,2,1,2,3,1,"","30306","male","man","","caucasian","","No","",""
