"","subject_id","task","trial_type","trial_index","time_elapsed","internal_node_id","study_id","session_id","group","rt","stimulus","width","height","webaudio","browser","browser_version","mobile","os","fullscreen","vsync_rate","webcam","microphone","success","timeout","failed_images","failed_audio","failed_video","accuracy","size","culture","loct","number","document.id","ambiguous","objects","invisible","chaos","complex","passedChecks","zipcode","age","sex","gender","gender-self-describe","ethnicity","ethnicity-self-describe","outsideUS","outsideUS_years","surveyComments"
"1","6138c06bd7d7f2b7720e7a27","svTrial","survey",8,49494,"0.0-2.0-6.0","65553732575bb29198a888d7","65565a8cabd9003cca3b9b71",3,"6599","Akita_large_sch_7_0.jpg",NA,NA,NA,NA,NA,NA,NA,NA,NA,NA,NA,NA,NA,NA,NA,NA,"[]","large",2,"sch",7,1,2,3,3,2,4,0,"18976","26","female","woman","","caucasian","","No","","No comments."
"2","6138c06bd7d7f2b7720e7a27","svTrial","survey",9,55263,"0.0-2.0-7.0","65553732575bb29198a888d7","65565a8cabd9003cca3b9b71",3,"5753","Toyama_large_pos_12_2.jpg",NA,NA,NA,NA,NA,NA,NA,NA,NA,NA,NA,NA,NA,NA,NA,NA,"[]","large",2,"sch",12,2,3,2,4,2,4,0,"18976","26","female","woman","","caucasian","","No","","No comments."
"3","6138c06bd7d7f2b7720e7a27","svTrial","survey",10,59503,"0.0-2.0-8.0","65553732575bb29198a888d7","65565a8cabd9003cca3b9b71",3,"4226","Okinawa_small_pos_3_0.jpg",NA,NA,NA,NA,NA,NA,NA,NA,NA,NA,NA,NA,NA,NA,NA,NA,"[]","large",1,"pos",3,3,3,2,4,2,4,0,"18976","26","female","woman","","caucasian","","No","","No comments."
"4","6138c06bd7d7f2b7720e7a27","svTrial","survey",11,66479,"0.0-2.0-9.0","65553732575bb29198a888d7","65565a8cabd9003cca3b9b71",3,"6958","Hokkaido_middle_sch_2_2.jpg",NA,NA,NA,NA,NA,NA,NA,NA,NA,NA,NA,NA,NA,NA,NA,NA,"[]","small",1,"pos",2,4,4,3,2,4,3,0,"18976","26","female","woman","","caucasian","","No","","No comments."
"5","6138c06bd7d7f2b7720e7a27","svTrial","survey",12,72814,"0.0-2.0-10.0","65553732575bb29198a888d7","65565a8cabd9003cca3b9b71",3,"6319","Toyama_large_pos_5_0.jpg",NA,NA,NA,NA,NA,NA,NA,NA,NA,NA,NA,NA,NA,NA,NA,NA,"[]","small",2,"pos",5,5,2,4,2,4,3,0,"18976","26","female","woman","","caucasian","","No","","No comments."
"6","6138c06bd7d7f2b7720e7a27","svTrial","survey",13,77974,"0.0-2.0-11.0","65553732575bb29198a888d7","65565a8cabd9003cca3b9b71",3,"5147","Hokkaido_middle_sch_1_2.jpg",NA,NA,NA,NA,NA,NA,NA,NA,NA,NA,NA,NA,NA,NA,NA,NA,"[]","small",1,"sch",1,6,2,3,2,2,4,0,"18976","26","female","woman","","caucasian","","No","","No comments."
"7","6138c06bd7d7f2b7720e7a27","svTrial","survey",14,82862,"0.0-2.0-12.0","65553732575bb29198a888d7","65565a8cabd9003cca3b9b71",3,"4875","Akita_large_sch_10_3.jpg",NA,NA,NA,NA,NA,NA,NA,NA,NA,NA,NA,NA,NA,NA,NA,NA,"[]","small",2,"pos",10,7,2,4,3,2,4,0,"18976","26","female","woman","","caucasian","","No","","No comments."
"8","6138c06bd7d7f2b7720e7a27","svTrial","survey",15,88726,"0.0-2.0-13.0","65553732575bb29198a888d7","65565a8cabd9003cca3b9b71",3,"5851","Hokkaido_middle_sch_6_0.jpg",NA,NA,NA,NA,NA,NA,NA,NA,NA,NA,NA,NA,NA,NA,NA,NA,"[]","small",1,"sch",6,8,4,2,2,3,3,0,"18976","26","female","woman","","caucasian","","No","","No comments."
"9","6138c06bd7d7f2b7720e7a27","svTrial","survey",16,93798,"0.0-2.0-14.0","65553732575bb29198a888d7","65565a8cabd9003cca3b9b71",3,"5058","Niigata_small_pos_1_2.jpg",NA,NA,NA,NA,NA,NA,NA,NA,NA,NA,NA,NA,NA,NA,NA,NA,"[]","small",2,"pos",1,9,4,2,3,2,3,0,"18976","26","female","woman","","caucasian","","No","","No comments."
"10","6138c06bd7d7f2b7720e7a27","svTrial","survey",17,101294,"0.0-2.0-15.0","65553732575bb29198a888d7","65565a8cabd9003cca3b9b71",3,"7482","Ishikawa_middle_pos_6_2.jpg",NA,NA,NA,NA,NA,NA,NA,NA,NA,NA,NA,NA,NA,NA,NA,NA,"[]","middle",2,"pos",6,10,2,4,3,2,4,0,"18976","26","female","woman","","caucasian","","No","","No comments."
"11","6138c06bd7d7f2b7720e7a27","svTrial","survey",18,105663,"0.0-2.0-16.0","65553732575bb29198a888d7","65565a8cabd9003cca3b9b71",3,"4357","Toyama_large_sch_4_0.jpg",NA,NA,NA,NA,NA,NA,NA,NA,NA,NA,NA,NA,NA,NA,NA,NA,"[]","small",2,"sch",4,11,3,2,3,2,3,0,"18976","26","female","woman","","caucasian","","No","","No comments."
"12","6138c06bd7d7f2b7720e7a27","svTrial","survey",19,111326,"0.0-2.0-17.0","65553732575bb29198a888d7","65565a8cabd9003cca3b9b71",3,"5650","Tokyo_small_sch_1_2.jpg",NA,NA,NA,NA,NA,NA,NA,NA,NA,NA,NA,NA,NA,NA,NA,NA,"[]","small",1,"sch",1,12,4,3,4,2,3,0,"18976","26","female","woman","","caucasian","","No","","No comments."
"13","6138c06bd7d7f2b7720e7a27","svTrial","survey",20,118462,"0.0-2.0-18.0","65553732575bb29198a888d7","65565a8cabd9003cca3b9b71",3,"7124","Niigata_middle_pos_1_2.jpg",NA,NA,NA,NA,NA,NA,NA,NA,NA,NA,NA,NA,NA,NA,NA,NA,"[]","middle",2,"pos",1,13,2,2,3,2,4,0,"18976","26","female","woman","","caucasian","","No","","No comments."
"14","6138c06bd7d7f2b7720e7a27","svTrial","survey",21,122950,"0.0-2.0-19.0","65553732575bb29198a888d7","65565a8cabd9003cca3b9b71",3,"4474","Tokyo_small_sch_4_3.jpg",NA,NA,NA,NA,NA,NA,NA,NA,NA,NA,NA,NA,NA,NA,NA,NA,"[]","large",1,"pos",4,14,2,3,2,3,3,0,"18976","26","female","woman","","caucasian","","No","","No comments."
"15","6138c06bd7d7f2b7720e7a27","svTrial","survey",22,128399,"0.0-2.0-20.0","65553732575bb29198a888d7","65565a8cabd9003cca3b9b71",3,"5436","Niigata_large_sch_3_2.jpg",NA,NA,NA,NA,NA,NA,NA,NA,NA,NA,NA,NA,NA,NA,NA,NA,"[]","large",2,"sch",3,15,2,4,2,3,3,0,"18976","26","female","woman","","caucasian","","No","","No comments."
"16","6138c06bd7d7f2b7720e7a27","svTrial","survey",23,133350,"0.0-2.0-21.0","65553732575bb29198a888d7","65565a8cabd9003cca3b9b71",3,"4939","Ishikawa_large_pos_7_1.jpg",NA,NA,NA,NA,NA,NA,NA,NA,NA,NA,NA,NA,NA,NA,NA,NA,"[]","large",2,"sch",7,16,2,4,3,2,4,0,"18976","26","female","woman","","caucasian","","No","","No comments."
"17","6138c06bd7d7f2b7720e7a27","svTrial","survey",24,137438,"0.0-2.0-22.0","65553732575bb29198a888d7","65565a8cabd9003cca3b9b71",3,"4076","Ishikawa_large_pos_6_3.jpg",NA,NA,NA,NA,NA,NA,NA,NA,NA,NA,NA,NA,NA,NA,NA,NA,"[]","middle",2,"pos",6,17,2,3,4,2,3,0,"18976","26","female","woman","","caucasian","","No","","No comments."
"18","6138c06bd7d7f2b7720e7a27","svTrial","survey",25,141566,"0.0-2.0-23.0","65553732575bb29198a888d7","65565a8cabd9003cca3b9b71",3,"4116","Hokkaido_large_sch_4_2.jpg",NA,NA,NA,NA,NA,NA,NA,NA,NA,NA,NA,NA,NA,NA,NA,NA,"[]","small",1,"sch",4,18,4,2,3,2,4,0,"18976","26","female","woman","","caucasian","","No","","No comments."
"19","6138c06bd7d7f2b7720e7a27","svTrial","survey",26,146462,"0.0-2.0-24.0","65553732575bb29198a888d7","65565a8cabd9003cca3b9b71",3,"4883","Okinawa_large_sch_2_0.jpg",NA,NA,NA,NA,NA,NA,NA,NA,NA,NA,NA,NA,NA,NA,NA,NA,"[]","small",1,"sch",2,19,2,4,2,3,3,0,"18976","26","female","woman","","caucasian","","No","","No comments."
"20","6138c06bd7d7f2b7720e7a27","svTrial","survey",27,151046,"0.0-2.0-25.0","65553732575bb29198a888d7","65565a8cabd9003cca3b9b71",3,"4572","Niigata_middle_pos_7_0.jpg",NA,NA,NA,NA,NA,NA,NA,NA,NA,NA,NA,NA,NA,NA,NA,NA,"[]","large",2,"sch",7,20,4,2,3,2,4,0,"18976","26","female","woman","","caucasian","","No","","No comments."
"21","6138c06bd7d7f2b7720e7a27","svTrial","survey",28,155862,"0.0-2.0-26.0","65553732575bb29198a888d7","65565a8cabd9003cca3b9b71",3,"4804","Niigata_large_pos_4_1.jpg",NA,NA,NA,NA,NA,NA,NA,NA,NA,NA,NA,NA,NA,NA,NA,NA,"[]","middle",2,"pos",4,21,2,3,2,4,3,0,"18976","26","female","woman","","caucasian","","No","","No comments."
"22","6138c06bd7d7f2b7720e7a27","svTrial","survey",29,160942,"0.0-2.0-27.0","65553732575bb29198a888d7","65565a8cabd9003cca3b9b71",3,"5069","Okinawa_middle_pos_4_0.jpg",NA,NA,NA,NA,NA,NA,NA,NA,NA,NA,NA,NA,NA,NA,NA,NA,"[]","small",1,"sch",4,22,2,3,2,3,3,0,"18976","26","female","woman","","caucasian","","No","","No comments."
"23","6138c06bd7d7f2b7720e7a27","svTrial","survey",30,165470,"0.0-2.0-28.0","65553732575bb29198a888d7","65565a8cabd9003cca3b9b71",3,"4516","Kanagawa_large_pos_4_1.jpg",NA,NA,NA,NA,NA,NA,NA,NA,NA,NA,NA,NA,NA,NA,NA,NA,"[]","small",1,"pos",4,23,4,3,2,3,4,0,"18976","26","female","woman","","caucasian","","No","","No comments."
"24","6138c06bd7d7f2b7720e7a27","svTrial","survey",31,169775,"0.0-2.0-29.0","65553732575bb29198a888d7","65565a8cabd9003cca3b9b71",3,"4291","Hokkaido_large_sch_3_1.jpg",NA,NA,NA,NA,NA,NA,NA,NA,NA,NA,NA,NA,NA,NA,NA,NA,"[]","small",1,"sch",3,24,2,3,2,4,3,0,"18976","26","female","woman","","caucasian","","No","","No comments."
"25","6138c06bd7d7f2b7720e7a27","svTrial","survey",33,194182,"0.0-2.0-31.0","65553732575bb29198a888d7","65565a8cabd9003cca3b9b71",3,"8634","Niigata_large_pos_9_3.jpg",NA,NA,NA,NA,NA,NA,NA,NA,NA,NA,NA,NA,NA,NA,NA,NA,"[]","small",2,"sch",9,25,3,4,2,2,4,0,"18976","26","female","woman","","caucasian","","No","","No comments."
"26","6138c06bd7d7f2b7720e7a27","svTrial","survey",34,198822,"0.0-2.0-32.0","65553732575bb29198a888d7","65565a8cabd9003cca3b9b71",3,"4628","Kanagawa_middle_pos_6_1.jpg",NA,NA,NA,NA,NA,NA,NA,NA,NA,NA,NA,NA,NA,NA,NA,NA,"[]","large",1,"sch",6,26,4,2,3,2,3,0,"18976","26","female","woman","","caucasian","","No","","No comments."
"27","6138c06bd7d7f2b7720e7a27","svTrial","survey",35,206222,"0.0-2.0-33.0","65553732575bb29198a888d7","65565a8cabd9003cca3b9b71",3,"7386","Kanagawa_large_sch_11_0.jpg",NA,NA,NA,NA,NA,NA,NA,NA,NA,NA,NA,NA,NA,NA,NA,NA,"[]","large",1,"sch",11,27,4,2,3,2,4,0,"18976","26","female","woman","","caucasian","","No","","No comments."
"28","6138c06bd7d7f2b7720e7a27","svTrial","survey",36,210830,"0.0-2.0-34.0","65553732575bb29198a888d7","65565a8cabd9003cca3b9b71",3,"4595","Akita_small_sch_1_3.jpg",NA,NA,NA,NA,NA,NA,NA,NA,NA,NA,NA,NA,NA,NA,NA,NA,"[]","middle",2,"sch",1,28,2,3,2,3,4,0,"18976","26","female","woman","","caucasian","","No","","No comments."
"29","6138c06bd7d7f2b7720e7a27","svTrial","survey",37,216526,"0.0-2.0-35.0","65553732575bb29198a888d7","65565a8cabd9003cca3b9b71",3,"5683","Akita_large_sch_1_1.jpg",NA,NA,NA,NA,NA,NA,NA,NA,NA,NA,NA,NA,NA,NA,NA,NA,"[]","small",2,"pos",1,29,3,4,2,3,1,0,"18976","26","female","woman","","caucasian","","No","","No comments."
"30","6138c06bd7d7f2b7720e7a27","svTrial","survey",38,221214,"0.0-2.0-36.0","65553732575bb29198a888d7","65565a8cabd9003cca3b9b71",3,"4676","Toyama_large_sch_8_3.jpg",NA,NA,NA,NA,NA,NA,NA,NA,NA,NA,NA,NA,NA,NA,NA,NA,"[]","small",2,"pos",8,30,4,2,3,4,2,0,"18976","26","female","woman","","caucasian","","No","","No comments."
"31","6138c06bd7d7f2b7720e7a27","svTrial","survey",39,226558,"0.0-2.0-37.0","65553732575bb29198a888d7","65565a8cabd9003cca3b9b71",3,"5333","Kanagawa_middle_sch_2_0.jpg",NA,NA,NA,NA,NA,NA,NA,NA,NA,NA,NA,NA,NA,NA,NA,NA,"[]","large",1,"sch",2,31,4,2,4,3,2,0,"18976","26","female","woman","","caucasian","","No","","No comments."
"32","6138c06bd7d7f2b7720e7a27","svTrial","survey",40,232582,"0.0-2.0-38.0","65553732575bb29198a888d7","65565a8cabd9003cca3b9b71",3,"6012","Kanagawa_middle_pos_2_2.jpg",NA,NA,NA,NA,NA,NA,NA,NA,NA,NA,NA,NA,NA,NA,NA,NA,"[]","small",1,"pos",2,32,4,4,2,3,2,0,"18976","26","female","woman","","caucasian","","No","","No comments."
"33","6138c06bd7d7f2b7720e7a27","svTrial","survey",41,238487,"0.0-2.0-39.0","65553732575bb29198a888d7","65565a8cabd9003cca3b9b71",3,"5893","Kanagawa_middle_sch_1_3.jpg",NA,NA,NA,NA,NA,NA,NA,NA,NA,NA,NA,NA,NA,NA,NA,NA,"[]","small",1,"sch",1,33,4,3,4,2,1,0,"18976","26","female","woman","","caucasian","","No","","No comments."
"34","6138c06bd7d7f2b7720e7a27","svTrial","survey",42,244456,"0.0-2.0-40.0","65553732575bb29198a888d7","65565a8cabd9003cca3b9b71",3,"5957","Ishikawa_large_pos_5_2.jpg",NA,NA,NA,NA,NA,NA,NA,NA,NA,NA,NA,NA,NA,NA,NA,NA,"[]","large",2,"pos",5,34,2,4,4,3,2,0,"18976","26","female","woman","","caucasian","","No","","No comments."
"35","6138c06bd7d7f2b7720e7a27","svTrial","survey",43,248998,"0.0-2.0-41.0","65553732575bb29198a888d7","65565a8cabd9003cca3b9b71",3,"4529","Hokkaido_middle_pos_1_0.jpg",NA,NA,NA,NA,NA,NA,NA,NA,NA,NA,NA,NA,NA,NA,NA,NA,"[]","small",1,"sch",1,35,2,3,2,2,4,0,"18976","26","female","woman","","caucasian","","No","","No comments."
"36","6138c06bd7d7f2b7720e7a27","svTrial","survey",44,254814,"0.0-2.0-42.0","65553732575bb29198a888d7","65565a8cabd9003cca3b9b71",3,"5805","Okinawa_middle_pos_6_2.jpg",NA,NA,NA,NA,NA,NA,NA,NA,NA,NA,NA,NA,NA,NA,NA,NA,"[]","large",1,"pos",6,36,3,3,4,2,4,0,"18976","26","female","woman","","caucasian","","No","","No comments."
"37","6138c06bd7d7f2b7720e7a27","svTrial","survey",45,260342,"0.0-2.0-43.0","65553732575bb29198a888d7","65565a8cabd9003cca3b9b71",3,"5515","Ishikawa_large_sch_6_3.jpg",NA,NA,NA,NA,NA,NA,NA,NA,NA,NA,NA,NA,NA,NA,NA,NA,"[]","small",2,"sch",6,37,4,2,3,2,4,0,"18976","26","female","woman","","caucasian","","No","","No comments."
"38","6138c06bd7d7f2b7720e7a27","svTrial","survey",46,269150,"0.0-2.0-44.0","65553732575bb29198a888d7","65565a8cabd9003cca3b9b71",3,"8797","Toyama_middle_pos_1_3.jpg",NA,NA,NA,NA,NA,NA,NA,NA,NA,NA,NA,NA,NA,NA,NA,NA,"[]","middle",2,"pos",1,38,3,3,3,4,2,0,"18976","26","female","woman","","caucasian","","No","","No comments."
"39","6138c06bd7d7f2b7720e7a27","svTrial","survey",47,275822,"0.0-2.0-45.0","65553732575bb29198a888d7","65565a8cabd9003cca3b9b71",3,"6660","Tokyo_middle_pos_5_3.jpg",NA,NA,NA,NA,NA,NA,NA,NA,NA,NA,NA,NA,NA,NA,NA,NA,"[]","small",1,"sch",5,39,4,2,4,2,4,0,"18976","26","female","woman","","caucasian","","No","","No comments."
"40","6138c06bd7d7f2b7720e7a27","svTrial","survey",48,281582,"0.0-2.0-46.0","65553732575bb29198a888d7","65565a8cabd9003cca3b9b71",3,"5747","Kanagawa_small_pos_1_3.jpg",NA,NA,NA,NA,NA,NA,NA,NA,NA,NA,NA,NA,NA,NA,NA,NA,"[]","middle",1,"sch",1,40,4,3,4,2,4,0,"18976","26","female","woman","","caucasian","","No","","No comments."
"41","6138c06bd7d7f2b7720e7a27","svTrial","survey",49,286478,"0.0-2.0-47.0","65553732575bb29198a888d7","65565a8cabd9003cca3b9b71",3,"4884","Toyama_small_sch_3_2.jpg",NA,NA,NA,NA,NA,NA,NA,NA,NA,NA,NA,NA,NA,NA,NA,NA,"[]","large",2,"pos",3,41,3,4,2,3,2,0,"18976","26","female","woman","","caucasian","","No","","No comments."
"42","6138c06bd7d7f2b7720e7a27","svTrial","survey",50,291510,"0.0-2.0-48.0","65553732575bb29198a888d7","65565a8cabd9003cca3b9b71",3,"5018","Kanagawa_large_pos_7_2.jpg",NA,NA,NA,NA,NA,NA,NA,NA,NA,NA,NA,NA,NA,NA,NA,NA,"[]","small",1,"pos",7,42,2,4,2,4,3,0,"18976","26","female","woman","","caucasian","","No","","No comments."
"43","6138c06bd7d7f2b7720e7a27","svTrial","survey",51,296070,"0.0-2.0-49.0","65553732575bb29198a888d7","65565a8cabd9003cca3b9b71",3,"4548","Akita_large_pos_9_2.jpg",NA,NA,NA,NA,NA,NA,NA,NA,NA,NA,NA,NA,NA,NA,NA,NA,"[]","small",2,"pos",9,43,4,3,2,4,3,0,"18976","26","female","woman","","caucasian","","No","","No comments."
"44","6138c06bd7d7f2b7720e7a27","svTrial","survey",52,301110,"0.0-2.0-50.0","65553732575bb29198a888d7","65565a8cabd9003cca3b9b71",3,"5026","Akita_middle_sch_6_1.jpg",NA,NA,NA,NA,NA,NA,NA,NA,NA,NA,NA,NA,NA,NA,NA,NA,"[]","small",2,"sch",6,44,4,2,3,2,4,0,"18976","26","female","woman","","caucasian","","No","","No comments."
"45","6138c06bd7d7f2b7720e7a27","svTrial","survey",53,305158,"0.0-2.0-51.0","65553732575bb29198a888d7","65565a8cabd9003cca3b9b71",3,"4035","Hokkaido_large_pos_4_0.jpg",NA,NA,NA,NA,NA,NA,NA,NA,NA,NA,NA,NA,NA,NA,NA,NA,"[]","middle",1,"sch",4,45,4,2,3,3,3,0,"18976","26","female","woman","","caucasian","","No","","No comments."
"46","6138c06bd7d7f2b7720e7a27","svTrial","survey",55,318893,"0.0-2.0-53.0","65553732575bb29198a888d7","65565a8cabd9003cca3b9b71",3,"7851","Ishikawa_large_pos_3_1.jpg",NA,NA,NA,NA,NA,NA,NA,NA,NA,NA,NA,NA,NA,NA,NA,NA,"[]","large",2,"pos",3,46,4,4,2,3,3,0,"18976","26","female","woman","","caucasian","","No","","No comments."
"47","6138c06bd7d7f2b7720e7a27","svTrial","survey",56,324807,"0.0-2.0-54.0","65553732575bb29198a888d7","65565a8cabd9003cca3b9b71",3,"5902","Okinawa_large_pos_1_1.jpg",NA,NA,NA,NA,NA,NA,NA,NA,NA,NA,NA,NA,NA,NA,NA,NA,"[]","large",1,"sch",1,47,4,2,3,2,4,0,"18976","26","female","woman","","caucasian","","No","","No comments."
"48","6138c06bd7d7f2b7720e7a27","svTrial","survey",57,329510,"0.0-2.0-55.0","65553732575bb29198a888d7","65565a8cabd9003cca3b9b71",3,"4690","Hokkaido_large_sch_11_3.jpg",NA,NA,NA,NA,NA,NA,NA,NA,NA,NA,NA,NA,NA,NA,NA,NA,"[]","large",1,"sch",11,48,4,2,3,2,3,0,"18976","26","female","woman","","caucasian","","No","","No comments."
