"","subject_id","task","trial_type","trial_index","time_elapsed","internal_node_id","study_id","session_id","group","rt","stimulus","width","height","webaudio","browser","browser_version","mobile","os","fullscreen","vsync_rate","webcam","microphone","success","timeout","failed_images","failed_audio","failed_video","accuracy","size","culture","loct","number","document.id","ambiguous","objects","invisible","chaos","complex","passedChecks","zipcode","age","sex","gender","gender-self-describe","ethnicity","ethnicity-self-describe","outsideUS","outsideUS_years","surveyComments"
"1","614ee4370d85f20de1b9548f","svTrial","survey",8,133086,"0.0-2.0-6.0","65553732575bb29198a888d7","655657feac7fa57b20fcfa57",2,"5808","Kanagawa_large_sch_7_1.jpg",NA,NA,NA,NA,NA,NA,NA,NA,NA,NA,NA,NA,NA,NA,NA,NA,"[]","middle",1,"pos",7,1,4,3,3,3,5,0,"78703","29","female","woman","","caucasian","","No","","Nope. "
"2","614ee4370d85f20de1b9548f","svTrial","survey",9,139097,"0.0-2.0-7.0","65553732575bb29198a888d7","655657feac7fa57b20fcfa57",2,"5994","Okinawa_middle_sch_2_3.jpg",NA,NA,NA,NA,NA,NA,NA,NA,NA,NA,NA,NA,NA,NA,NA,NA,"[]","small",1,"sch",2,2,4,2,4,3,4,0,"78703","29","female","woman","","caucasian","","No","","Nope. "
"3","614ee4370d85f20de1b9548f","svTrial","survey",10,148080,"0.0-2.0-8.0","65553732575bb29198a888d7","655657feac7fa57b20fcfa57",2,"8967","Hokkaido_small_sch_4_3.jpg",NA,NA,NA,NA,NA,NA,NA,NA,NA,NA,NA,NA,NA,NA,NA,NA,"[]","small",1,"pos",4,3,4,3,4,2,4,0,"78703","29","female","woman","","caucasian","","No","","Nope. "
"4","614ee4370d85f20de1b9548f","svTrial","survey",11,153056,"0.0-2.0-9.0","65553732575bb29198a888d7","655657feac7fa57b20fcfa57",2,"4959","Akita_middle_sch_2_1.jpg",NA,NA,NA,NA,NA,NA,NA,NA,NA,NA,NA,NA,NA,NA,NA,NA,"[]","middle",2,"sch",2,4,4,2,4,3,5,0,"78703","29","female","woman","","caucasian","","No","","Nope. "
"5","614ee4370d85f20de1b9548f","svTrial","survey",12,163040,"0.0-2.0-10.0","65553732575bb29198a888d7","655657feac7fa57b20fcfa57",2,"9969","Ishikawa_large_sch_1_1.jpg",NA,NA,NA,NA,NA,NA,NA,NA,NA,NA,NA,NA,NA,NA,NA,NA,"[]","middle",2,"sch",1,5,1,2,3,4,3,0,"78703","29","female","woman","","caucasian","","No","","Nope. "
"6","614ee4370d85f20de1b9548f","svTrial","survey",13,171992,"0.0-2.0-11.0","65553732575bb29198a888d7","655657feac7fa57b20fcfa57",2,"8937","Niigata_middle_sch_5_1.jpg",NA,NA,NA,NA,NA,NA,NA,NA,NA,NA,NA,NA,NA,NA,NA,NA,"[]","small",2,"pos",5,6,2,4,3,2,4,0,"78703","29","female","woman","","caucasian","","No","","Nope. "
"7","614ee4370d85f20de1b9548f","svTrial","survey",14,182552,"0.0-2.0-12.0","65553732575bb29198a888d7","655657feac7fa57b20fcfa57",2,"10544","Toyama_large_pos_3_2.jpg",NA,NA,NA,NA,NA,NA,NA,NA,NA,NA,NA,NA,NA,NA,NA,NA,"[]","middle",2,"pos",3,7,4,2,4,2,4,0,"78703","29","female","woman","","caucasian","","No","","Nope. "
"8","614ee4370d85f20de1b9548f","svTrial","survey",15,189767,"0.0-2.0-13.0","65553732575bb29198a888d7","655657feac7fa57b20fcfa57",2,"7199","Niigata_large_pos_8_2.jpg",NA,NA,NA,NA,NA,NA,NA,NA,NA,NA,NA,NA,NA,NA,NA,NA,"[]","middle",2,"pos",8,8,2,4,2,3,2,0,"78703","29","female","woman","","caucasian","","No","","Nope. "
"9","614ee4370d85f20de1b9548f","svTrial","survey",16,198032,"0.0-2.0-14.0","65553732575bb29198a888d7","655657feac7fa57b20fcfa57",2,"8249","Kanagawa_middle_sch_3_2.jpg",NA,NA,NA,NA,NA,NA,NA,NA,NA,NA,NA,NA,NA,NA,NA,NA,"[]","large",1,"sch",3,9,2,4,3,2,4,0,"78703","29","female","woman","","caucasian","","No","","Nope. "
"10","614ee4370d85f20de1b9548f","svTrial","survey",17,203448,"0.0-2.0-15.0","65553732575bb29198a888d7","655657feac7fa57b20fcfa57",2,"5402","Toyama_small_pos_4_3.jpg",NA,NA,NA,NA,NA,NA,NA,NA,NA,NA,NA,NA,NA,NA,NA,NA,"[]","small",2,"sch",4,10,3,2,4,2,4,0,"78703","29","female","woman","","caucasian","","No","","Nope. "
"11","614ee4370d85f20de1b9548f","svTrial","survey",18,208648,"0.0-2.0-16.0","65553732575bb29198a888d7","655657feac7fa57b20fcfa57",2,"5185","Hokkaido_middle_sch_3_0.jpg",NA,NA,NA,NA,NA,NA,NA,NA,NA,NA,NA,NA,NA,NA,NA,NA,"[]","middle",1,"sch",3,11,2,4,3,3,4,0,"78703","29","female","woman","","caucasian","","No","","Nope. "
"12","614ee4370d85f20de1b9548f","svTrial","survey",19,214746,"0.0-2.0-17.0","65553732575bb29198a888d7","655657feac7fa57b20fcfa57",2,"6084","Hokkaido_middle_sch_5_3.jpg",NA,NA,NA,NA,NA,NA,NA,NA,NA,NA,NA,NA,NA,NA,NA,NA,"[]","small",1,"pos",5,12,2,4,3,2,4,0,"78703","29","female","woman","","caucasian","","No","","Nope. "
"13","614ee4370d85f20de1b9548f","svTrial","survey",20,222048,"0.0-2.0-18.0","65553732575bb29198a888d7","655657feac7fa57b20fcfa57",2,"7289","Hokkaido_large_pos_12_1.jpg",NA,NA,NA,NA,NA,NA,NA,NA,NA,NA,NA,NA,NA,NA,NA,NA,"[]","middle",1,"sch",12,13,3,4,2,3,3,0,"78703","29","female","woman","","caucasian","","No","","Nope. "
"14","614ee4370d85f20de1b9548f","svTrial","survey",21,228609,"0.0-2.0-19.0","65553732575bb29198a888d7","655657feac7fa57b20fcfa57",2,"6549","Okinawa_large_sch_9_1.jpg",NA,NA,NA,NA,NA,NA,NA,NA,NA,NA,NA,NA,NA,NA,NA,NA,"[]","small",1,"sch",9,14,2,3,2,3,3,0,"78703","29","female","woman","","caucasian","","No","","Nope. "
"15","614ee4370d85f20de1b9548f","svTrial","survey",22,236048,"0.0-2.0-20.0","65553732575bb29198a888d7","655657feac7fa57b20fcfa57",2,"7424","Niigata_large_sch_8_0.jpg",NA,NA,NA,NA,NA,NA,NA,NA,NA,NA,NA,NA,NA,NA,NA,NA,"[]","middle",2,"sch",8,15,4,2,4,2,4,0,"78703","29","female","woman","","caucasian","","No","","Nope. "
"16","614ee4370d85f20de1b9548f","svTrial","survey",23,244705,"0.0-2.0-21.0","65553732575bb29198a888d7","655657feac7fa57b20fcfa57",2,"8645","Okinawa_small_pos_2_3.jpg",NA,NA,NA,NA,NA,NA,NA,NA,NA,NA,NA,NA,NA,NA,NA,NA,"[]","large",1,"pos",2,16,2,3,3,2,4,0,"78703","29","female","woman","","caucasian","","No","","Nope. "
"17","614ee4370d85f20de1b9548f","svTrial","survey",24,263352,"0.0-2.0-22.0","65553732575bb29198a888d7","655657feac7fa57b20fcfa57",2,"18634","Kanagawa_large_sch_3_0.jpg",NA,NA,NA,NA,NA,NA,NA,NA,NA,NA,NA,NA,NA,NA,NA,NA,"[]","small",1,"pos",3,17,3,4,2,4,3,0,"78703","29","female","woman","","caucasian","","No","","Nope. "
"18","614ee4370d85f20de1b9548f","svTrial","survey",25,277650,"0.0-2.0-23.0","65553732575bb29198a888d7","655657feac7fa57b20fcfa57",2,"14285","Toyama_middle_pos_2_2.jpg",NA,NA,NA,NA,NA,NA,NA,NA,NA,NA,NA,NA,NA,NA,NA,NA,"[]","middle",2,"pos",2,18,2,4,3,2,4,0,"78703","29","female","woman","","caucasian","","No","","Nope. "
"19","614ee4370d85f20de1b9548f","svTrial","survey",26,289471,"0.0-2.0-24.0","65553732575bb29198a888d7","655657feac7fa57b20fcfa57",2,"11809","Toyama_middle_pos_5_3.jpg",NA,NA,NA,NA,NA,NA,NA,NA,NA,NA,NA,NA,NA,NA,NA,NA,"[]","large",2,"sch",5,19,2,3,3,3,4,0,"78703","29","female","woman","","caucasian","","No","","Nope. "
"20","614ee4370d85f20de1b9548f","svTrial","survey",27,295216,"0.0-2.0-25.0","65553732575bb29198a888d7","655657feac7fa57b20fcfa57",2,"5731","Niigata_large_sch_4_1.jpg",NA,NA,NA,NA,NA,NA,NA,NA,NA,NA,NA,NA,NA,NA,NA,NA,"[]","small",2,"sch",4,20,2,4,3,2,4,0,"78703","29","female","woman","","caucasian","","No","","Nope. "
"21","614ee4370d85f20de1b9548f","svTrial","survey",28,301832,"0.0-2.0-26.0","65553732575bb29198a888d7","655657feac7fa57b20fcfa57",2,"6602","Ishikawa_large_sch_5_3.jpg",NA,NA,NA,NA,NA,NA,NA,NA,NA,NA,NA,NA,NA,NA,NA,NA,"[]","large",2,"sch",5,21,3,3,2,4,3,0,"78703","29","female","woman","","caucasian","","No","","Nope. "
"22","614ee4370d85f20de1b9548f","svTrial","survey",29,308695,"0.0-2.0-27.0","65553732575bb29198a888d7","655657feac7fa57b20fcfa57",2,"6852","Kanagawa_small_pos_2_0.jpg",NA,NA,NA,NA,NA,NA,NA,NA,NA,NA,NA,NA,NA,NA,NA,NA,"[]","small",1,"sch",2,22,4,3,2,3,3,0,"78703","29","female","woman","","caucasian","","No","","Nope. "
"23","614ee4370d85f20de1b9548f","svTrial","survey",30,314696,"0.0-2.0-28.0","65553732575bb29198a888d7","655657feac7fa57b20fcfa57",2,"5987","Toyama_small_sch_4_2.jpg",NA,NA,NA,NA,NA,NA,NA,NA,NA,NA,NA,NA,NA,NA,NA,NA,"[]","middle",2,"sch",4,23,2,4,3,2,4,0,"78703","29","female","woman","","caucasian","","No","","Nope. "
"24","614ee4370d85f20de1b9548f","svTrial","survey",31,319695,"0.0-2.0-29.0","65553732575bb29198a888d7","655657feac7fa57b20fcfa57",2,"4986","Okinawa_large_pos_4_0.jpg",NA,NA,NA,NA,NA,NA,NA,NA,NA,NA,NA,NA,NA,NA,NA,NA,"[]","large",1,"sch",4,24,3,2,4,2,4,0,"78703","29","female","woman","","caucasian","","No","","Nope. "
"25","614ee4370d85f20de1b9548f","svTrial","survey",33,344247,"0.0-2.0-31.0","65553732575bb29198a888d7","655657feac7fa57b20fcfa57",2,"8778","Toyama_middle_pos_7_2.jpg",NA,NA,NA,NA,NA,NA,NA,NA,NA,NA,NA,NA,NA,NA,NA,NA,"[]","large",2,"sch",7,25,2,4,3,2,4,0,"78703","29","female","woman","","caucasian","","No","","Nope. "
"26","614ee4370d85f20de1b9548f","svTrial","survey",34,350152,"0.0-2.0-32.0","65553732575bb29198a888d7","655657feac7fa57b20fcfa57",2,"5891","Tokyo_small_sch_3_0.jpg",NA,NA,NA,NA,NA,NA,NA,NA,NA,NA,NA,NA,NA,NA,NA,NA,"[]","small",1,"sch",3,26,2,3,2,3,3,0,"78703","29","female","woman","","caucasian","","No","","Nope. "
"27","614ee4370d85f20de1b9548f","svTrial","survey",35,356431,"0.0-2.0-33.0","65553732575bb29198a888d7","655657feac7fa57b20fcfa57",2,"6268","Toyama_middle_pos_4_2.jpg",NA,NA,NA,NA,NA,NA,NA,NA,NA,NA,NA,NA,NA,NA,NA,NA,"[]","large",2,"sch",4,27,3,2,3,4,3,0,"78703","29","female","woman","","caucasian","","No","","Nope. "
"28","614ee4370d85f20de1b9548f","svTrial","survey",36,362287,"0.0-2.0-34.0","65553732575bb29198a888d7","655657feac7fa57b20fcfa57",2,"5843","Okinawa_large_sch_1_2.jpg",NA,NA,NA,NA,NA,NA,NA,NA,NA,NA,NA,NA,NA,NA,NA,NA,"[]","middle",1,"pos",1,28,2,3,4,2,4,0,"78703","29","female","woman","","caucasian","","No","","Nope. "
"29","614ee4370d85f20de1b9548f","svTrial","survey",37,368895,"0.0-2.0-35.0","65553732575bb29198a888d7","655657feac7fa57b20fcfa57",2,"6593","Toyama_large_sch_5_3.jpg",NA,NA,NA,NA,NA,NA,NA,NA,NA,NA,NA,NA,NA,NA,NA,NA,"[]","large",2,"sch",5,29,2,3,4,2,4,0,"78703","29","female","woman","","caucasian","","No","","Nope. "
"30","614ee4370d85f20de1b9548f","svTrial","survey",38,374609,"0.0-2.0-36.0","65553732575bb29198a888d7","655657feac7fa57b20fcfa57",2,"5702","Kanagawa_large_pos_5_3.jpg",NA,NA,NA,NA,NA,NA,NA,NA,NA,NA,NA,NA,NA,NA,NA,NA,"[]","small",1,"sch",5,30,3,2,4,2,4,0,"78703","29","female","woman","","caucasian","","No","","Nope. "
"31","614ee4370d85f20de1b9548f","svTrial","survey",39,380687,"0.0-2.0-37.0","65553732575bb29198a888d7","655657feac7fa57b20fcfa57",2,"6066","Akita_large_pos_6_1.jpg",NA,NA,NA,NA,NA,NA,NA,NA,NA,NA,NA,NA,NA,NA,NA,NA,"[]","large",2,"sch",6,31,2,4,3,4,3,0,"78703","29","female","woman","","caucasian","","No","","Nope. "
"32","614ee4370d85f20de1b9548f","svTrial","survey",40,386945,"0.0-2.0-38.0","65553732575bb29198a888d7","655657feac7fa57b20fcfa57",2,"6245","Kanagawa_small_pos_3_0.jpg",NA,NA,NA,NA,NA,NA,NA,NA,NA,NA,NA,NA,NA,NA,NA,NA,"[]","large",1,"sch",3,32,2,4,2,4,3,0,"78703","29","female","woman","","caucasian","","No","","Nope. "
"33","614ee4370d85f20de1b9548f","svTrial","survey",41,392311,"0.0-2.0-39.0","65553732575bb29198a888d7","655657feac7fa57b20fcfa57",2,"5354","Niigata_large_pos_6_1.jpg",NA,NA,NA,NA,NA,NA,NA,NA,NA,NA,NA,NA,NA,NA,NA,NA,"[]","large",2,"sch",6,33,2,4,3,2,4,0,"78703","29","female","woman","","caucasian","","No","","Nope. "
"34","614ee4370d85f20de1b9548f","svTrial","survey",42,398375,"0.0-2.0-40.0","65553732575bb29198a888d7","655657feac7fa57b20fcfa57",2,"6049","Tokyo_middle_sch_8_1.jpg",NA,NA,NA,NA,NA,NA,NA,NA,NA,NA,NA,NA,NA,NA,NA,NA,"[]","small",1,"sch",8,34,3,4,2,3,2,0,"78703","29","female","woman","","caucasian","","No","","Nope. "
"35","614ee4370d85f20de1b9548f","svTrial","survey",43,404321,"0.0-2.0-41.0","65553732575bb29198a888d7","655657feac7fa57b20fcfa57",2,"5934","Niigata_middle_pos_8_3.jpg",NA,NA,NA,NA,NA,NA,NA,NA,NA,NA,NA,NA,NA,NA,NA,NA,"[]","middle",2,"pos",8,35,4,2,3,2,4,0,"78703","29","female","woman","","caucasian","","No","","Nope. "
"36","614ee4370d85f20de1b9548f","svTrial","survey",44,411447,"0.0-2.0-42.0","65553732575bb29198a888d7","655657feac7fa57b20fcfa57",2,"7113","Kanagawa_large_sch_6_0.jpg",NA,NA,NA,NA,NA,NA,NA,NA,NA,NA,NA,NA,NA,NA,NA,NA,"[]","middle",1,"pos",6,36,2,3,2,3,4,0,"78703","29","female","woman","","caucasian","","No","","Nope. "
"37","614ee4370d85f20de1b9548f","svTrial","survey",45,419839,"0.0-2.0-43.0","65553732575bb29198a888d7","655657feac7fa57b20fcfa57",2,"8380","Akita_middle_sch_7_0.jpg",NA,NA,NA,NA,NA,NA,NA,NA,NA,NA,NA,NA,NA,NA,NA,NA,"[]","large",2,"sch",7,37,2,3,2,4,3,0,"78703","29","female","woman","","caucasian","","No","","Nope. "
"38","614ee4370d85f20de1b9548f","svTrial","survey",46,424615,"0.0-2.0-44.0","65553732575bb29198a888d7","655657feac7fa57b20fcfa57",2,"4763","Kanagawa_large_sch_4_3.jpg",NA,NA,NA,NA,NA,NA,NA,NA,NA,NA,NA,NA,NA,NA,NA,NA,"[]","middle",1,"sch",4,38,2,3,4,2,3,0,"78703","29","female","woman","","caucasian","","No","","Nope. "
"39","614ee4370d85f20de1b9548f","svTrial","survey",47,430703,"0.0-2.0-45.0","65553732575bb29198a888d7","655657feac7fa57b20fcfa57",2,"6076","Toyama_large_sch_12_3.jpg",NA,NA,NA,NA,NA,NA,NA,NA,NA,NA,NA,NA,NA,NA,NA,NA,"[]","small",2,"pos",12,39,3,3,2,4,3,0,"78703","29","female","woman","","caucasian","","No","","Nope. "
"40","614ee4370d85f20de1b9548f","svTrial","survey",48,438887,"0.0-2.0-46.0","65553732575bb29198a888d7","655657feac7fa57b20fcfa57",2,"8171","Hokkaido_large_sch_6_2.jpg",NA,NA,NA,NA,NA,NA,NA,NA,NA,NA,NA,NA,NA,NA,NA,NA,"[]","small",1,"pos",6,40,4,3,2,3,3,0,"78703","29","female","woman","","caucasian","","No","","Nope. "
"41","614ee4370d85f20de1b9548f","svTrial","survey",49,444193,"0.0-2.0-47.0","65553732575bb29198a888d7","655657feac7fa57b20fcfa57",2,"5292","Toyama_large_sch_1_2.jpg",NA,NA,NA,NA,NA,NA,NA,NA,NA,NA,NA,NA,NA,NA,NA,NA,"[]","middle",2,"sch",1,41,4,2,3,2,4,0,"78703","29","female","woman","","caucasian","","No","","Nope. "
"42","614ee4370d85f20de1b9548f","svTrial","survey",50,450759,"0.0-2.0-48.0","65553732575bb29198a888d7","655657feac7fa57b20fcfa57",2,"6554","Tokyo_large_pos_6_2.jpg",NA,NA,NA,NA,NA,NA,NA,NA,NA,NA,NA,NA,NA,NA,NA,NA,"[]","middle",1,"pos",6,42,2,4,2,3,3,0,"78703","29","female","woman","","caucasian","","No","","Nope. "
"43","614ee4370d85f20de1b9548f","svTrial","survey",51,457801,"0.0-2.0-49.0","65553732575bb29198a888d7","655657feac7fa57b20fcfa57",2,"7030","Okinawa_large_sch_3_2.jpg",NA,NA,NA,NA,NA,NA,NA,NA,NA,NA,NA,NA,NA,NA,NA,NA,"[]","large",1,"pos",3,43,4,2,3,4,3,0,"78703","29","female","woman","","caucasian","","No","","Nope. "
"44","614ee4370d85f20de1b9548f","svTrial","survey",52,464439,"0.0-2.0-50.0","65553732575bb29198a888d7","655657feac7fa57b20fcfa57",2,"6626","Akita_large_pos_8_0.jpg",NA,NA,NA,NA,NA,NA,NA,NA,NA,NA,NA,NA,NA,NA,NA,NA,"[]","middle",2,"pos",8,44,2,4,3,2,4,0,"78703","29","female","woman","","caucasian","","No","","Nope. "
"45","614ee4370d85f20de1b9548f","svTrial","survey",53,470864,"0.0-2.0-51.0","65553732575bb29198a888d7","655657feac7fa57b20fcfa57",2,"6412","Okinawa_large_sch_8_2.jpg",NA,NA,NA,NA,NA,NA,NA,NA,NA,NA,NA,NA,NA,NA,NA,NA,"[]","middle",1,"sch",8,45,2,4,3,2,4,0,"78703","29","female","woman","","caucasian","","No","","Nope. "
"46","614ee4370d85f20de1b9548f","svTrial","survey",54,475832,"0.0-2.0-52.0","65553732575bb29198a888d7","655657feac7fa57b20fcfa57",2,"4955","Tokyo_large_pos_5_2.jpg",NA,NA,NA,NA,NA,NA,NA,NA,NA,NA,NA,NA,NA,NA,NA,NA,"[]","middle",1,"pos",5,46,3,3,2,4,2,0,"78703","29","female","woman","","caucasian","","No","","Nope. "
"47","614ee4370d85f20de1b9548f","svTrial","survey",55,484320,"0.0-2.0-53.0","65553732575bb29198a888d7","655657feac7fa57b20fcfa57",2,"8475","Toyama_small_sch_2_0.jpg",NA,NA,NA,NA,NA,NA,NA,NA,NA,NA,NA,NA,NA,NA,NA,NA,"[]","large",2,"pos",2,47,2,4,2,2,4,0,"78703","29","female","woman","","caucasian","","No","","Nope. "
"48","614ee4370d85f20de1b9548f","svTrial","survey",57,495295,"0.0-2.0-55.0","65553732575bb29198a888d7","655657feac7fa57b20fcfa57",2,"5059","Akita_large_sch_3_3.jpg",NA,NA,NA,NA,NA,NA,NA,NA,NA,NA,NA,NA,NA,NA,NA,NA,"[]","small",2,"sch",3,48,3,2,4,2,4,0,"78703","29","female","woman","","caucasian","","No","","Nope. "
