"","subject_id","task","trial_type","trial_index","time_elapsed","internal_node_id","study_id","session_id","group","rt","stimulus","width","height","webaudio","browser","browser_version","mobile","os","fullscreen","vsync_rate","webcam","microphone","success","timeout","failed_images","failed_audio","failed_video","accuracy","size","culture","loct","number","document.id","ambiguous","objects","invisible","chaos","complex","passedChecks","zipcode","age","sex","gender","gender-self-describe","ethnicity","ethnicity-self-describe","outsideUS","outsideUS_years","surveyComments"
"1","614f297777d0d8f5e2a5b354","svTrial","survey",8,139513,"0.0-2.0-6.0","65553732575bb29198a888d7","65565c4f3a087c71b206db7e",7,"56050","Okinawa_small_sch_3_2.jpg",NA,NA,NA,NA,NA,NA,NA,NA,NA,NA,NA,NA,NA,NA,NA,NA,"[]","large",1,"sch",3,1,5,4,5,5,5,1,"49724","66","male","man","","caucasian","","No","",""
"2","614f297777d0d8f5e2a5b354","svTrial","survey",9,173573,"0.0-2.0-7.0","65553732575bb29198a888d7","65565c4f3a087c71b206db7e",7,"34044","Niigata_small_sch_2_1.jpg",NA,NA,NA,NA,NA,NA,NA,NA,NA,NA,NA,NA,NA,NA,NA,NA,"[]","small",2,"sch",2,2,1,3,1,1,2,1,"49724","66","male","man","","caucasian","","No","",""
"3","614f297777d0d8f5e2a5b354","svTrial","survey",10,225031,"0.0-2.0-8.0","65553732575bb29198a888d7","65565c4f3a087c71b206db7e",7,"51444","Akita_middle_pos_8_2.jpg",NA,NA,NA,NA,NA,NA,NA,NA,NA,NA,NA,NA,NA,NA,NA,NA,"[]","small",2,"sch",8,3,3,3,2,4,3,1,"49724","66","male","man","","caucasian","","No","",""
"4","614f297777d0d8f5e2a5b354","svTrial","survey",11,252871,"0.0-2.0-9.0","65553732575bb29198a888d7","65565c4f3a087c71b206db7e",7,"27827","Ishikawa_middle_pos_5_2.jpg",NA,NA,NA,NA,NA,NA,NA,NA,NA,NA,NA,NA,NA,NA,NA,NA,"[]","large",2,"sch",5,4,4,3,5,4,3,1,"49724","66","male","man","","caucasian","","No","",""
"5","614f297777d0d8f5e2a5b354","svTrial","survey",12,270995,"0.0-2.0-10.0","65553732575bb29198a888d7","65565c4f3a087c71b206db7e",7,"18112","Niigata_middle_sch_3_0.jpg",NA,NA,NA,NA,NA,NA,NA,NA,NA,NA,NA,NA,NA,NA,NA,NA,"[]","middle",2,"pos",3,5,5,5,5,5,5,1,"49724","66","male","man","","caucasian","","No","",""
"6","614f297777d0d8f5e2a5b354","svTrial","survey",13,290338,"0.0-2.0-11.0","65553732575bb29198a888d7","65565c4f3a087c71b206db7e",7,"19332","Kanagawa_large_pos_8_1.jpg",NA,NA,NA,NA,NA,NA,NA,NA,NA,NA,NA,NA,NA,NA,NA,NA,"[]","large",1,"pos",8,6,5,5,5,5,5,1,"49724","66","male","man","","caucasian","","No","",""
"7","614f297777d0d8f5e2a5b354","svTrial","survey",14,316638,"0.0-2.0-12.0","65553732575bb29198a888d7","65565c4f3a087c71b206db7e",7,"26289","Niigata_small_pos_4_3.jpg",NA,NA,NA,NA,NA,NA,NA,NA,NA,NA,NA,NA,NA,NA,NA,NA,"[]","middle",2,"sch",4,7,5,4,5,4,4,1,"49724","66","male","man","","caucasian","","No","",""
"8","614f297777d0d8f5e2a5b354","svTrial","survey",15,332782,"0.0-2.0-13.0","65553732575bb29198a888d7","65565c4f3a087c71b206db7e",7,"16133","Hokkaido_middle_pos_5_2.jpg",NA,NA,NA,NA,NA,NA,NA,NA,NA,NA,NA,NA,NA,NA,NA,NA,"[]","middle",1,"pos",5,8,5,5,5,5,5,1,"49724","66","male","man","","caucasian","","No","",""
"9","614f297777d0d8f5e2a5b354","svTrial","survey",16,390283,"0.0-2.0-14.0","65553732575bb29198a888d7","65565c4f3a087c71b206db7e",7,"57489","Niigata_middle_sch_1_0.jpg",NA,NA,NA,NA,NA,NA,NA,NA,NA,NA,NA,NA,NA,NA,NA,NA,"[]","large",2,"sch",1,9,4,1,3,3,1,1,"49724","66","male","man","","caucasian","","No","",""
"10","614f297777d0d8f5e2a5b354","svTrial","survey",17,421592,"0.0-2.0-15.0","65553732575bb29198a888d7","65565c4f3a087c71b206db7e",7,"31297","Ishikawa_small_pos_1_2.jpg",NA,NA,NA,NA,NA,NA,NA,NA,NA,NA,NA,NA,NA,NA,NA,NA,"[]","small",2,"pos",1,10,5,4,5,4,3,1,"49724","66","male","man","","caucasian","","No","",""
"11","614f297777d0d8f5e2a5b354","svTrial","survey",18,437028,"0.0-2.0-16.0","65553732575bb29198a888d7","65565c4f3a087c71b206db7e",7,"15425","Okinawa_middle_sch_8_1.jpg",NA,NA,NA,NA,NA,NA,NA,NA,NA,NA,NA,NA,NA,NA,NA,NA,"[]","large",1,"sch",8,11,5,5,5,5,5,1,"49724","66","male","man","","caucasian","","No","",""
"12","614f297777d0d8f5e2a5b354","svTrial","survey",19,465520,"0.0-2.0-17.0","65553732575bb29198a888d7","65565c4f3a087c71b206db7e",7,"28481","Akita_middle_sch_3_3.jpg",NA,NA,NA,NA,NA,NA,NA,NA,NA,NA,NA,NA,NA,NA,NA,NA,"[]","large",2,"pos",3,12,2,3,2,2,2,1,"49724","66","male","man","","caucasian","","No","",""
"13","614f297777d0d8f5e2a5b354","svTrial","survey",20,541556,"0.0-2.0-18.0","65553732575bb29198a888d7","65565c4f3a087c71b206db7e",7,"76025","Kanagawa_large_sch_1_3.jpg",NA,NA,NA,NA,NA,NA,NA,NA,NA,NA,NA,NA,NA,NA,NA,NA,"[]","middle",1,"sch",1,13,5,3,5,4,2,1,"49724","66","male","man","","caucasian","","No","",""
"14","614f297777d0d8f5e2a5b354","svTrial","survey",21,560191,"0.0-2.0-19.0","65553732575bb29198a888d7","65565c4f3a087c71b206db7e",7,"18625","Tokyo_middle_sch_1_3.jpg",NA,NA,NA,NA,NA,NA,NA,NA,NA,NA,NA,NA,NA,NA,NA,NA,"[]","large",1,"sch",1,14,1,1,1,1,1,1,"49724","66","male","man","","caucasian","","No","",""
"15","614f297777d0d8f5e2a5b354","svTrial","survey",22,587624,"0.0-2.0-20.0","65553732575bb29198a888d7","65565c4f3a087c71b206db7e",7,"27422","Tokyo_large_sch_3_3.jpg",NA,NA,NA,NA,NA,NA,NA,NA,NA,NA,NA,NA,NA,NA,NA,NA,"[]","large",1,"sch",3,15,5,3,5,5,3,1,"49724","66","male","man","","caucasian","","No","",""
"16","614f297777d0d8f5e2a5b354","svTrial","survey",23,615312,"0.0-2.0-21.0","65553732575bb29198a888d7","65565c4f3a087c71b206db7e",7,"27677","Niigata_large_sch_12_3.jpg",NA,NA,NA,NA,NA,NA,NA,NA,NA,NA,NA,NA,NA,NA,NA,NA,"[]","middle",2,"sch",12,16,5,2,4,3,1,1,"49724","66","male","man","","caucasian","","No","",""
"17","614f297777d0d8f5e2a5b354","svTrial","survey",25,663132,"0.0-2.0-23.0","65553732575bb29198a888d7","65565c4f3a087c71b206db7e",7,"40261","Ishikawa_large_sch_7_0.jpg",NA,NA,NA,NA,NA,NA,NA,NA,NA,NA,NA,NA,NA,NA,NA,NA,"[]","large",2,"pos",7,17,4,3,3,4,2,1,"49724","66","male","man","","caucasian","","No","",""
"18","614f297777d0d8f5e2a5b354","svTrial","survey",26,695892,"0.0-2.0-24.0","65553732575bb29198a888d7","65565c4f3a087c71b206db7e",7,"32748","Tokyo_middle_pos_4_2.jpg",NA,NA,NA,NA,NA,NA,NA,NA,NA,NA,NA,NA,NA,NA,NA,NA,"[]","small",1,"pos",4,18,5,3,5,5,2,1,"49724","66","male","man","","caucasian","","No","",""
"19","614f297777d0d8f5e2a5b354","svTrial","survey",27,721587,"0.0-2.0-25.0","65553732575bb29198a888d7","65565c4f3a087c71b206db7e",7,"25686","Akita_middle_pos_6_1.jpg",NA,NA,NA,NA,NA,NA,NA,NA,NA,NA,NA,NA,NA,NA,NA,NA,"[]","large",2,"sch",6,19,4,2,5,5,2,1,"49724","66","male","man","","caucasian","","No","",""
"20","614f297777d0d8f5e2a5b354","svTrial","survey",28,760228,"0.0-2.0-26.0","65553732575bb29198a888d7","65565c4f3a087c71b206db7e",7,"38628","Kanagawa_middle_sch_4_3.jpg",NA,NA,NA,NA,NA,NA,NA,NA,NA,NA,NA,NA,NA,NA,NA,NA,"[]","middle",1,"sch",4,20,4,4,4,2,3,1,"49724","66","male","man","","caucasian","","No","",""
"21","614f297777d0d8f5e2a5b354","svTrial","survey",29,783348,"0.0-2.0-27.0","65553732575bb29198a888d7","65565c4f3a087c71b206db7e",7,"23108","Tokyo_large_sch_4_1.jpg",NA,NA,NA,NA,NA,NA,NA,NA,NA,NA,NA,NA,NA,NA,NA,NA,"[]","small",1,"pos",4,21,5,5,5,5,3,1,"49724","66","male","man","","caucasian","","No","",""
"22","614f297777d0d8f5e2a5b354","svTrial","survey",30,810468,"0.0-2.0-28.0","65553732575bb29198a888d7","65565c4f3a087c71b206db7e",7,"27109","Niigata_large_sch_6_0.jpg",NA,NA,NA,NA,NA,NA,NA,NA,NA,NA,NA,NA,NA,NA,NA,NA,"[]","small",2,"sch",6,22,2,1,1,1,1,1,"49724","66","male","man","","caucasian","","No","",""
"23","614f297777d0d8f5e2a5b354","svTrial","survey",31,831756,"0.0-2.0-29.0","65553732575bb29198a888d7","65565c4f3a087c71b206db7e",7,"21277","Ishikawa_middle_sch_7_0.jpg",NA,NA,NA,NA,NA,NA,NA,NA,NA,NA,NA,NA,NA,NA,NA,NA,"[]","large",2,"pos",7,23,5,4,5,5,3,1,"49724","66","male","man","","caucasian","","No","",""
"24","614f297777d0d8f5e2a5b354","svTrial","survey",32,871000,"0.0-2.0-30.0","65553732575bb29198a888d7","65565c4f3a087c71b206db7e",7,"39233","Tokyo_large_sch_6_3.jpg",NA,NA,NA,NA,NA,NA,NA,NA,NA,NA,NA,NA,NA,NA,NA,NA,"[]","large",1,"sch",6,24,4,3,4,4,3,1,"49724","66","male","man","","caucasian","","No","",""
"25","614f297777d0d8f5e2a5b354","svTrial","survey",34,923616,"0.0-2.0-32.0","65553732575bb29198a888d7","65565c4f3a087c71b206db7e",7,"36828","Niigata_large_pos_7_2.jpg",NA,NA,NA,NA,NA,NA,NA,NA,NA,NA,NA,NA,NA,NA,NA,NA,"[]","middle",2,"sch",7,25,4,1,3,3,1,1,"49724","66","male","man","","caucasian","","No","",""
"26","614f297777d0d8f5e2a5b354","svTrial","survey",35,950556,"0.0-2.0-33.0","65553732575bb29198a888d7","65565c4f3a087c71b206db7e",7,"26930","Hokkaido_small_sch_1_0.jpg",NA,NA,NA,NA,NA,NA,NA,NA,NA,NA,NA,NA,NA,NA,NA,NA,"[]","small",1,"pos",1,26,2,3,3,2,3,1,"49724","66","male","man","","caucasian","","No","",""
"27","614f297777d0d8f5e2a5b354","svTrial","survey",36,972072,"0.0-2.0-34.0","65553732575bb29198a888d7","65565c4f3a087c71b206db7e",7,"21505","Hokkaido_small_pos_4_1.jpg",NA,NA,NA,NA,NA,NA,NA,NA,NA,NA,NA,NA,NA,NA,NA,NA,"[]","small",1,"pos",4,27,5,3,5,4,3,1,"49724","66","male","man","","caucasian","","No","",""
"28","614f297777d0d8f5e2a5b354","svTrial","survey",37,1006356,"0.0-2.0-35.0","65553732575bb29198a888d7","65565c4f3a087c71b206db7e",7,"34273","Toyama_large_sch_3_0.jpg",NA,NA,NA,NA,NA,NA,NA,NA,NA,NA,NA,NA,NA,NA,NA,NA,"[]","large",2,"sch",3,28,5,4,5,4,4,1,"49724","66","male","man","","caucasian","","No","",""
"29","614f297777d0d8f5e2a5b354","svTrial","survey",38,1025368,"0.0-2.0-36.0","65553732575bb29198a888d7","65565c4f3a087c71b206db7e",7,"19000","Tokyo_middle_sch_4_2.jpg",NA,NA,NA,NA,NA,NA,NA,NA,NA,NA,NA,NA,NA,NA,NA,NA,"[]","large",1,"sch",4,29,5,3,5,5,4,1,"49724","66","male","man","","caucasian","","No","",""
"30","614f297777d0d8f5e2a5b354","svTrial","survey",39,1072188,"0.0-2.0-37.0","65553732575bb29198a888d7","65565c4f3a087c71b206db7e",7,"46810","Tokyo_large_pos_10_2.jpg",NA,NA,NA,NA,NA,NA,NA,NA,NA,NA,NA,NA,NA,NA,NA,NA,"[]","large",1,"sch",10,30,5,5,5,5,4,1,"49724","66","male","man","","caucasian","","No","",""
"31","614f297777d0d8f5e2a5b354","svTrial","survey",40,1095272,"0.0-2.0-38.0","65553732575bb29198a888d7","65565c4f3a087c71b206db7e",7,"23074","Toyama_large_sch_7_2.jpg",NA,NA,NA,NA,NA,NA,NA,NA,NA,NA,NA,NA,NA,NA,NA,NA,"[]","small",2,"sch",7,31,3,3,4,3,2,1,"49724","66","male","man","","caucasian","","No","",""
"32","614f297777d0d8f5e2a5b354","svTrial","survey",41,1122580,"0.0-2.0-39.0","65553732575bb29198a888d7","65565c4f3a087c71b206db7e",7,"27296","Hokkaido_large_sch_9_3.jpg",NA,NA,NA,NA,NA,NA,NA,NA,NA,NA,NA,NA,NA,NA,NA,NA,"[]","large",1,"sch",9,32,2,1,1,1,2,1,"49724","66","male","man","","caucasian","","No","",""
"33","614f297777d0d8f5e2a5b354","svTrial","survey",42,1142128,"0.0-2.0-40.0","65553732575bb29198a888d7","65565c4f3a087c71b206db7e",7,"19538","Akita_small_pos_3_2.jpg",NA,NA,NA,NA,NA,NA,NA,NA,NA,NA,NA,NA,NA,NA,NA,NA,"[]","small",2,"pos",3,33,5,4,5,5,4,1,"49724","66","male","man","","caucasian","","No","",""
"34","614f297777d0d8f5e2a5b354","svTrial","survey",43,1163385,"0.0-2.0-41.0","65553732575bb29198a888d7","65565c4f3a087c71b206db7e",7,"21246","Akita_small_pos_1_1.jpg",NA,NA,NA,NA,NA,NA,NA,NA,NA,NA,NA,NA,NA,NA,NA,NA,"[]","middle",2,"pos",1,34,4,2,4,3,2,1,"49724","66","male","man","","caucasian","","No","",""
"35","614f297777d0d8f5e2a5b354","svTrial","survey",44,1191057,"0.0-2.0-42.0","65553732575bb29198a888d7","65565c4f3a087c71b206db7e",7,"27661","Ishikawa_small_pos_2_0.jpg",NA,NA,NA,NA,NA,NA,NA,NA,NA,NA,NA,NA,NA,NA,NA,NA,"[]","middle",2,"pos",2,35,3,3,2,2,2,1,"49724","66","male","man","","caucasian","","No","",""
"36","614f297777d0d8f5e2a5b354","svTrial","survey",45,1212329,"0.0-2.0-43.0","65553732575bb29198a888d7","65565c4f3a087c71b206db7e",7,"21261","Okinawa_large_pos_7_2.jpg",NA,NA,NA,NA,NA,NA,NA,NA,NA,NA,NA,NA,NA,NA,NA,NA,"[]","large",1,"sch",7,36,5,2,5,2,2,1,"49724","66","male","man","","caucasian","","No","",""
"37","614f297777d0d8f5e2a5b354","svTrial","survey",46,1229762,"0.0-2.0-44.0","65553732575bb29198a888d7","65565c4f3a087c71b206db7e",7,"17423","Ishikawa_large_sch_8_0.jpg",NA,NA,NA,NA,NA,NA,NA,NA,NA,NA,NA,NA,NA,NA,NA,NA,"[]","large",2,"pos",8,37,5,5,5,5,5,1,"49724","66","male","man","","caucasian","","No","",""
"38","614f297777d0d8f5e2a5b354","svTrial","survey",47,1261176,"0.0-2.0-45.0","65553732575bb29198a888d7","65565c4f3a087c71b206db7e",7,"31405","Okinawa_middle_pos_5_1.jpg",NA,NA,NA,NA,NA,NA,NA,NA,NA,NA,NA,NA,NA,NA,NA,NA,"[]","large",1,"sch",5,38,4,4,5,4,3,1,"49724","66","male","man","","caucasian","","No","",""
"39","614f297777d0d8f5e2a5b354","svTrial","survey",48,1285685,"0.0-2.0-46.0","65553732575bb29198a888d7","65565c4f3a087c71b206db7e",7,"24497","Hokkaido_large_pos_8_3.jpg",NA,NA,NA,NA,NA,NA,NA,NA,NA,NA,NA,NA,NA,NA,NA,NA,"[]","small",1,"sch",8,39,5,4,5,4,4,1,"49724","66","male","man","","caucasian","","No","",""
"40","614f297777d0d8f5e2a5b354","svTrial","survey",49,1313649,"0.0-2.0-47.0","65553732575bb29198a888d7","65565c4f3a087c71b206db7e",7,"27954","Hokkaido_large_sch_7_1.jpg",NA,NA,NA,NA,NA,NA,NA,NA,NA,NA,NA,NA,NA,NA,NA,NA,"[]","large",1,"sch",7,40,2,2,3,2,2,1,"49724","66","male","man","","caucasian","","No","",""
"41","614f297777d0d8f5e2a5b354","svTrial","survey",50,1340693,"0.0-2.0-48.0","65553732575bb29198a888d7","65565c4f3a087c71b206db7e",7,"27034","Tokyo_large_pos_11_3.jpg",NA,NA,NA,NA,NA,NA,NA,NA,NA,NA,NA,NA,NA,NA,NA,NA,"[]","small",1,"sch",11,41,3,3,2,2,2,1,"49724","66","male","man","","caucasian","","No","",""
"42","614f297777d0d8f5e2a5b354","svTrial","survey",51,1365834,"0.0-2.0-49.0","65553732575bb29198a888d7","65565c4f3a087c71b206db7e",7,"25130","Toyama_middle_sch_2_1.jpg",NA,NA,NA,NA,NA,NA,NA,NA,NA,NA,NA,NA,NA,NA,NA,NA,"[]","large",2,"pos",2,42,5,3,5,3,3,1,"49724","66","male","man","","caucasian","","No","",""
"43","614f297777d0d8f5e2a5b354","svTrial","survey",52,1383286,"0.0-2.0-50.0","65553732575bb29198a888d7","65565c4f3a087c71b206db7e",7,"17441","Hokkaido_middle_sch_8_1.jpg",NA,NA,NA,NA,NA,NA,NA,NA,NA,NA,NA,NA,NA,NA,NA,NA,"[]","large",1,"pos",8,43,1,1,1,1,1,1,"49724","66","male","man","","caucasian","","No","",""
"44","614f297777d0d8f5e2a5b354","svTrial","survey",53,1415522,"0.0-2.0-51.0","65553732575bb29198a888d7","65565c4f3a087c71b206db7e",7,"32226","Hokkaido_large_pos_6_3.jpg",NA,NA,NA,NA,NA,NA,NA,NA,NA,NA,NA,NA,NA,NA,NA,NA,"[]","middle",1,"pos",6,44,2,2,2,2,3,1,"49724","66","male","man","","caucasian","","No","",""
"45","614f297777d0d8f5e2a5b354","svTrial","survey",54,1430650,"0.0-2.0-52.0","65553732575bb29198a888d7","65565c4f3a087c71b206db7e",7,"15119","Ishikawa_middle_sch_6_1.jpg",NA,NA,NA,NA,NA,NA,NA,NA,NA,NA,NA,NA,NA,NA,NA,NA,"[]","large",2,"sch",6,45,5,4,5,5,3,1,"49724","66","male","man","","caucasian","","No","",""
"46","614f297777d0d8f5e2a5b354","svTrial","survey",55,1451890,"0.0-2.0-53.0","65553732575bb29198a888d7","65565c4f3a087c71b206db7e",7,"21230","Okinawa_middle_sch_6_1.jpg",NA,NA,NA,NA,NA,NA,NA,NA,NA,NA,NA,NA,NA,NA,NA,NA,"[]","small",1,"sch",6,46,3,3,3,2,2,1,"49724","66","male","man","","caucasian","","No","",""
"47","614f297777d0d8f5e2a5b354","svTrial","survey",56,1471610,"0.0-2.0-54.0","65553732575bb29198a888d7","65565c4f3a087c71b206db7e",7,"19709","Ishikawa_middle_sch_3_0.jpg",NA,NA,NA,NA,NA,NA,NA,NA,NA,NA,NA,NA,NA,NA,NA,NA,"[]","small",2,"sch",3,47,1,1,1,2,2,1,"49724","66","male","man","","caucasian","","No","",""
"48","614f297777d0d8f5e2a5b354","svTrial","survey",57,1496294,"0.0-2.0-55.0","65553732575bb29198a888d7","65565c4f3a087c71b206db7e",7,"24674","Akita_middle_pos_4_2.jpg",NA,NA,NA,NA,NA,NA,NA,NA,NA,NA,NA,NA,NA,NA,NA,NA,"[]","large",2,"pos",4,48,2,2,1,2,2,1,"49724","66","male","man","","caucasian","","No","",""
