"","subject_id","task","trial_type","trial_index","time_elapsed","internal_node_id","study_id","session_id","group","rt","stimulus","width","height","webaudio","browser","browser_version","mobile","os","fullscreen","vsync_rate","webcam","microphone","success","timeout","failed_images","failed_audio","failed_video","accuracy","size","culture","loct","number","document.id","ambiguous","objects","invisible","chaos","complex","passedChecks","zipcode","age","sex","gender","gender-self-describe","ethnicity","ethnicity-self-describe","outsideUS","outsideUS_years","surveyComments"
"1","6158f8d1ad08e224c817b97b","svTrial","survey",8,1043254,"0.0-2.0-6.0","65553732575bb29198a888d7","65565b580e819cf37058fe12",2,"74096","Kanagawa_middle_sch_3_3.jpg",NA,NA,NA,NA,NA,NA,NA,NA,NA,NA,NA,NA,NA,NA,NA,NA,"[]","large",1,"sch",3,1,4,3,4,4,3,1,"80216","24","male","man","","caucasian","","No","0",""
"2","6158f8d1ad08e224c817b97b","svTrial","survey",9,1076757,"0.0-2.0-7.0","65553732575bb29198a888d7","65565b580e819cf37058fe12",2,"33487","Toyama_small_sch_2_3.jpg",NA,NA,NA,NA,NA,NA,NA,NA,NA,NA,NA,NA,NA,NA,NA,NA,"[]","large",2,"pos",2,2,2,3,4,1,2,1,"80216","24","male","man","","caucasian","","No","0",""
"3","6158f8d1ad08e224c817b97b","svTrial","survey",10,1103367,"0.0-2.0-8.0","65553732575bb29198a888d7","65565b580e819cf37058fe12",2,"26599","Akita_large_sch_3_2.jpg",NA,NA,NA,NA,NA,NA,NA,NA,NA,NA,NA,NA,NA,NA,NA,NA,"[]","small",2,"sch",3,3,1,3,3,1,2,1,"80216","24","male","man","","caucasian","","No","0",""
"4","6158f8d1ad08e224c817b97b","svTrial","survey",11,1120709,"0.0-2.0-9.0","65553732575bb29198a888d7","65565b580e819cf37058fe12",2,"17328","Hokkaido_middle_sch_5_1.jpg",NA,NA,NA,NA,NA,NA,NA,NA,NA,NA,NA,NA,NA,NA,NA,NA,"[]","small",1,"pos",5,4,1,3,2,1,2,1,"80216","24","male","man","","caucasian","","No","0",""
"5","6158f8d1ad08e224c817b97b","svTrial","survey",12,1152294,"0.0-2.0-10.0","65553732575bb29198a888d7","65565b580e819cf37058fe12",2,"31567","Toyama_middle_pos_4_2.jpg",NA,NA,NA,NA,NA,NA,NA,NA,NA,NA,NA,NA,NA,NA,NA,NA,"[]","large",2,"sch",4,5,3,2,3,2,3,1,"80216","24","male","man","","caucasian","","No","0",""
"6","6158f8d1ad08e224c817b97b","svTrial","survey",13,1178375,"0.0-2.0-11.0","65553732575bb29198a888d7","65565b580e819cf37058fe12",2,"26065","Akita_large_pos_6_0.jpg",NA,NA,NA,NA,NA,NA,NA,NA,NA,NA,NA,NA,NA,NA,NA,NA,"[]","large",2,"sch",6,6,2,3,3,2,2,1,"80216","24","male","man","","caucasian","","No","0",""
"7","6158f8d1ad08e224c817b97b","svTrial","survey",14,1195275,"0.0-2.0-12.0","65553732575bb29198a888d7","65565b580e819cf37058fe12",2,"16886","Okinawa_middle_sch_2_3.jpg",NA,NA,NA,NA,NA,NA,NA,NA,NA,NA,NA,NA,NA,NA,NA,NA,"[]","small",1,"sch",2,7,1,2,2,2,2,1,"80216","24","male","man","","caucasian","","No","0",""
"8","6158f8d1ad08e224c817b97b","svTrial","survey",15,1216832,"0.0-2.0-13.0","65553732575bb29198a888d7","65565b580e819cf37058fe12",2,"21544","Toyama_large_pos_3_3.jpg",NA,NA,NA,NA,NA,NA,NA,NA,NA,NA,NA,NA,NA,NA,NA,NA,"[]","middle",2,"pos",3,8,3,2,3,3,4,1,"80216","24","male","man","","caucasian","","No","0",""
"9","6158f8d1ad08e224c817b97b","svTrial","survey",16,1241035,"0.0-2.0-14.0","65553732575bb29198a888d7","65565b580e819cf37058fe12",2,"24190","Niigata_large_sch_4_3.jpg",NA,NA,NA,NA,NA,NA,NA,NA,NA,NA,NA,NA,NA,NA,NA,NA,"[]","small",2,"sch",4,9,3,2,2,2,3,1,"80216","24","male","man","","caucasian","","No","0",""
"10","6158f8d1ad08e224c817b97b","svTrial","survey",17,1253971,"0.0-2.0-15.0","65553732575bb29198a888d7","65565b580e819cf37058fe12",2,"12921","Tokyo_large_pos_6_1.jpg",NA,NA,NA,NA,NA,NA,NA,NA,NA,NA,NA,NA,NA,NA,NA,NA,"[]","middle",1,"pos",6,10,1,2,2,1,2,1,"80216","24","male","man","","caucasian","","No","0",""
"11","6158f8d1ad08e224c817b97b","svTrial","survey",18,1268745,"0.0-2.0-16.0","65553732575bb29198a888d7","65565b580e819cf37058fe12",2,"14762","Tokyo_small_sch_3_2.jpg",NA,NA,NA,NA,NA,NA,NA,NA,NA,NA,NA,NA,NA,NA,NA,NA,"[]","small",1,"sch",3,11,4,3,3,3,4,1,"80216","24","male","man","","caucasian","","No","0",""
"12","6158f8d1ad08e224c817b97b","svTrial","survey",19,1309159,"0.0-2.0-17.0","65553732575bb29198a888d7","65565b580e819cf37058fe12",2,"40400","Toyama_large_sch_12_0.jpg",NA,NA,NA,NA,NA,NA,NA,NA,NA,NA,NA,NA,NA,NA,NA,NA,"[]","small",2,"pos",12,12,3,2,3,2,3,1,"80216","24","male","man","","caucasian","","No","0",""
"13","6158f8d1ad08e224c817b97b","svTrial","survey",20,1329949,"0.0-2.0-18.0","65553732575bb29198a888d7","65565b580e819cf37058fe12",2,"20778","Akita_large_pos_8_0.jpg",NA,NA,NA,NA,NA,NA,NA,NA,NA,NA,NA,NA,NA,NA,NA,NA,"[]","middle",2,"pos",8,13,2,3,2,2,3,1,"80216","24","male","man","","caucasian","","No","0",""
"14","6158f8d1ad08e224c817b97b","svTrial","survey",21,1365951,"0.0-2.0-19.0","65553732575bb29198a888d7","65565b580e819cf37058fe12",2,"35994","Tokyo_large_pos_5_3.jpg",NA,NA,NA,NA,NA,NA,NA,NA,NA,NA,NA,NA,NA,NA,NA,NA,"[]","middle",1,"pos",5,14,2,2,3,2,2,1,"80216","24","male","man","","caucasian","","No","0",""
"15","6158f8d1ad08e224c817b97b","svTrial","survey",22,1382789,"0.0-2.0-20.0","65553732575bb29198a888d7","65565b580e819cf37058fe12",2,"16825","Toyama_small_sch_4_3.jpg",NA,NA,NA,NA,NA,NA,NA,NA,NA,NA,NA,NA,NA,NA,NA,NA,"[]","middle",2,"sch",4,15,1,2,2,1,1,1,"80216","24","male","man","","caucasian","","No","0",""
"16","6158f8d1ad08e224c817b97b","svTrial","survey",23,1407965,"0.0-2.0-21.0","65553732575bb29198a888d7","65565b580e819cf37058fe12",2,"25163","Kanagawa_small_pos_3_2.jpg",NA,NA,NA,NA,NA,NA,NA,NA,NA,NA,NA,NA,NA,NA,NA,NA,"[]","large",1,"sch",3,16,3,3,2,2,2,1,"80216","24","male","man","","caucasian","","No","0",""
"17","6158f8d1ad08e224c817b97b","svTrial","survey",24,1423599,"0.0-2.0-22.0","65553732575bb29198a888d7","65565b580e819cf37058fe12",2,"15620","Hokkaido_middle_sch_3_1.jpg",NA,NA,NA,NA,NA,NA,NA,NA,NA,NA,NA,NA,NA,NA,NA,NA,"[]","middle",1,"sch",3,17,1,2,2,1,1,1,"80216","24","male","man","","caucasian","","No","0",""
"18","6158f8d1ad08e224c817b97b","svTrial","survey",25,1573626,"0.0-2.0-23.0","65553732575bb29198a888d7","65565b580e819cf37058fe12",2,"150015","Niigata_large_sch_8_3.jpg",NA,NA,NA,NA,NA,NA,NA,NA,NA,NA,NA,NA,NA,NA,NA,NA,"[]","middle",2,"sch",8,18,3,2,2,2,3,1,"80216","24","male","man","","caucasian","","No","0",""
"19","6158f8d1ad08e224c817b97b","svTrial","survey",26,1584675,"0.0-2.0-24.0","65553732575bb29198a888d7","65565b580e819cf37058fe12",2,"11029","Toyama_middle_pos_5_3.jpg",NA,NA,NA,NA,NA,NA,NA,NA,NA,NA,NA,NA,NA,NA,NA,NA,"[]","large",2,"sch",5,19,2,2,3,2,2,1,"80216","24","male","man","","caucasian","","No","0",""
"20","6158f8d1ad08e224c817b97b","svTrial","survey",27,1604135,"0.0-2.0-25.0","65553732575bb29198a888d7","65565b580e819cf37058fe12",2,"19447","Kanagawa_large_sch_6_0.jpg",NA,NA,NA,NA,NA,NA,NA,NA,NA,NA,NA,NA,NA,NA,NA,NA,"[]","middle",1,"pos",6,20,2,2,3,2,3,1,"80216","24","male","man","","caucasian","","No","0",""
"21","6158f8d1ad08e224c817b97b","svTrial","survey",28,1635046,"0.0-2.0-26.0","65553732575bb29198a888d7","65565b580e819cf37058fe12",2,"30893","Okinawa_large_sch_3_2.jpg",NA,NA,NA,NA,NA,NA,NA,NA,NA,NA,NA,NA,NA,NA,NA,NA,"[]","large",1,"pos",3,21,3,3,3,4,4,1,"80216","24","male","man","","caucasian","","No","0",""
"22","6158f8d1ad08e224c817b97b","svTrial","survey",29,1661306,"0.0-2.0-27.0","65553732575bb29198a888d7","65565b580e819cf37058fe12",2,"26250","Kanagawa_large_sch_4_3.jpg",NA,NA,NA,NA,NA,NA,NA,NA,NA,NA,NA,NA,NA,NA,NA,NA,"[]","middle",1,"sch",4,22,2,3,3,2,2,1,"80216","24","male","man","","caucasian","","No","0",""
"23","6158f8d1ad08e224c817b97b","svTrial","survey",30,1674182,"0.0-2.0-28.0","65553732575bb29198a888d7","65565b580e819cf37058fe12",2,"12861","Kanagawa_large_sch_7_3.jpg",NA,NA,NA,NA,NA,NA,NA,NA,NA,NA,NA,NA,NA,NA,NA,NA,"[]","middle",1,"pos",7,23,2,2,3,3,2,1,"80216","24","male","man","","caucasian","","No","0",""
"24","6158f8d1ad08e224c817b97b","svTrial","survey",31,1688205,"0.0-2.0-29.0","65553732575bb29198a888d7","65565b580e819cf37058fe12",2,"14027","Toyama_large_sch_1_1.jpg",NA,NA,NA,NA,NA,NA,NA,NA,NA,NA,NA,NA,NA,NA,NA,NA,"[]","middle",2,"sch",1,24,4,3,3,3,3,1,"80216","24","male","man","","caucasian","","No","0",""
"25","6158f8d1ad08e224c817b97b","svTrial","survey",33,1720714,"0.0-2.0-31.0","65553732575bb29198a888d7","65565b580e819cf37058fe12",2,"18277","Toyama_middle_pos_2_1.jpg",NA,NA,NA,NA,NA,NA,NA,NA,NA,NA,NA,NA,NA,NA,NA,NA,"[]","middle",2,"pos",2,25,3,2,2,2,3,1,"80216","24","male","man","","caucasian","","No","0",""
"26","6158f8d1ad08e224c817b97b","svTrial","survey",34,1734017,"0.0-2.0-32.0","65553732575bb29198a888d7","65565b580e819cf37058fe12",2,"13290","Toyama_small_pos_4_0.jpg",NA,NA,NA,NA,NA,NA,NA,NA,NA,NA,NA,NA,NA,NA,NA,NA,"[]","small",2,"sch",4,26,2,2,3,2,3,1,"80216","24","male","man","","caucasian","","No","0",""
"27","6158f8d1ad08e224c817b97b","svTrial","survey",35,1745511,"0.0-2.0-33.0","65553732575bb29198a888d7","65565b580e819cf37058fe12",2,"11466","Okinawa_small_pos_2_2.jpg",NA,NA,NA,NA,NA,NA,NA,NA,NA,NA,NA,NA,NA,NA,NA,NA,"[]","large",1,"pos",2,27,1,2,2,2,2,1,"80216","24","male","man","","caucasian","","No","0",""
"28","6158f8d1ad08e224c817b97b","svTrial","survey",36,1781710,"0.0-2.0-34.0","65553732575bb29198a888d7","65565b580e819cf37058fe12",2,"36184","Tokyo_middle_sch_8_3.jpg",NA,NA,NA,NA,NA,NA,NA,NA,NA,NA,NA,NA,NA,NA,NA,NA,"[]","small",1,"sch",8,28,2,3,2,2,3,1,"80216","24","male","man","","caucasian","","No","0",""
"29","6158f8d1ad08e224c817b97b","svTrial","survey",37,1800278,"0.0-2.0-35.0","65553732575bb29198a888d7","65565b580e819cf37058fe12",2,"18555","Okinawa_large_sch_9_3.jpg",NA,NA,NA,NA,NA,NA,NA,NA,NA,NA,NA,NA,NA,NA,NA,NA,"[]","small",1,"sch",9,29,3,2,2,2,3,1,"80216","24","male","man","","caucasian","","No","0",""
"30","6158f8d1ad08e224c817b97b","svTrial","survey",38,1814054,"0.0-2.0-36.0","65553732575bb29198a888d7","65565b580e819cf37058fe12",2,"13765","Akita_middle_sch_7_0.jpg",NA,NA,NA,NA,NA,NA,NA,NA,NA,NA,NA,NA,NA,NA,NA,NA,"[]","large",2,"sch",7,30,2,1,2,1,2,1,"80216","24","male","man","","caucasian","","No","0",""
"31","6158f8d1ad08e224c817b97b","svTrial","survey",39,1835199,"0.0-2.0-37.0","65553732575bb29198a888d7","65565b580e819cf37058fe12",2,"21135","Toyama_middle_pos_7_0.jpg",NA,NA,NA,NA,NA,NA,NA,NA,NA,NA,NA,NA,NA,NA,NA,NA,"[]","large",2,"sch",7,31,2,3,2,3,3,1,"80216","24","male","man","","caucasian","","No","0",""
"32","6158f8d1ad08e224c817b97b","svTrial","survey",40,1849372,"0.0-2.0-38.0","65553732575bb29198a888d7","65565b580e819cf37058fe12",2,"14161","Toyama_large_sch_5_3.jpg",NA,NA,NA,NA,NA,NA,NA,NA,NA,NA,NA,NA,NA,NA,NA,NA,"[]","large",2,"sch",5,32,2,2,2,2,1,1,"80216","24","male","man","","caucasian","","No","0",""
"33","6158f8d1ad08e224c817b97b","svTrial","survey",41,1870351,"0.0-2.0-39.0","65553732575bb29198a888d7","65565b580e819cf37058fe12",2,"20967","Kanagawa_small_pos_2_1.jpg",NA,NA,NA,NA,NA,NA,NA,NA,NA,NA,NA,NA,NA,NA,NA,NA,"[]","small",1,"sch",2,33,2,2,2,2,3,1,"80216","24","male","man","","caucasian","","No","0",""
"34","6158f8d1ad08e224c817b97b","svTrial","survey",42,1885519,"0.0-2.0-40.0","65553732575bb29198a888d7","65565b580e819cf37058fe12",2,"15159","Okinawa_large_sch_1_0.jpg",NA,NA,NA,NA,NA,NA,NA,NA,NA,NA,NA,NA,NA,NA,NA,NA,"[]","middle",1,"pos",1,34,2,2,2,1,2,1,"80216","24","male","man","","caucasian","","No","0",""
"35","6158f8d1ad08e224c817b97b","svTrial","survey",43,1901060,"0.0-2.0-41.0","65553732575bb29198a888d7","65565b580e819cf37058fe12",2,"15529","Okinawa_large_sch_8_3.jpg",NA,NA,NA,NA,NA,NA,NA,NA,NA,NA,NA,NA,NA,NA,NA,NA,"[]","middle",1,"sch",8,35,2,2,2,2,1,1,"80216","24","male","man","","caucasian","","No","0",""
"36","6158f8d1ad08e224c817b97b","svTrial","survey",44,1916373,"0.0-2.0-42.0","65553732575bb29198a888d7","65565b580e819cf37058fe12",2,"15299","Ishikawa_large_sch_1_0.jpg",NA,NA,NA,NA,NA,NA,NA,NA,NA,NA,NA,NA,NA,NA,NA,NA,"[]","middle",2,"sch",1,36,2,3,3,2,3,1,"80216","24","male","man","","caucasian","","No","0",""
"37","6158f8d1ad08e224c817b97b","svTrial","survey",45,1936659,"0.0-2.0-43.0","65553732575bb29198a888d7","65565b580e819cf37058fe12",2,"20274","Akita_middle_sch_2_2.jpg",NA,NA,NA,NA,NA,NA,NA,NA,NA,NA,NA,NA,NA,NA,NA,NA,"[]","middle",2,"sch",2,37,2,2,3,2,2,1,"80216","24","male","man","","caucasian","","No","0",""
"38","6158f8d1ad08e224c817b97b","svTrial","survey",46,1955024,"0.0-2.0-44.0","65553732575bb29198a888d7","65565b580e819cf37058fe12",2,"18353","Niigata_middle_pos_8_1.jpg",NA,NA,NA,NA,NA,NA,NA,NA,NA,NA,NA,NA,NA,NA,NA,NA,"[]","middle",2,"pos",8,38,2,2,3,2,2,1,"80216","24","male","man","","caucasian","","No","0",""
"39","6158f8d1ad08e224c817b97b","svTrial","survey",47,1975257,"0.0-2.0-45.0","65553732575bb29198a888d7","65565b580e819cf37058fe12",2,"20219","Okinawa_large_pos_4_1.jpg",NA,NA,NA,NA,NA,NA,NA,NA,NA,NA,NA,NA,NA,NA,NA,NA,"[]","large",1,"sch",4,39,3,3,4,2,3,1,"80216","24","male","man","","caucasian","","No","0",""
"40","6158f8d1ad08e224c817b97b","svTrial","survey",49,2004104,"0.0-2.0-47.0","65553732575bb29198a888d7","65565b580e819cf37058fe12",2,"19694","Niigata_middle_sch_5_0.jpg",NA,NA,NA,NA,NA,NA,NA,NA,NA,NA,NA,NA,NA,NA,NA,NA,"[]","small",2,"pos",5,40,4,5,5,3,3,1,"80216","24","male","man","","caucasian","","No","0",""
"41","6158f8d1ad08e224c817b97b","svTrial","survey",50,2015613,"0.0-2.0-48.0","65553732575bb29198a888d7","65565b580e819cf37058fe12",2,"11495","Niigata_large_pos_6_1.jpg",NA,NA,NA,NA,NA,NA,NA,NA,NA,NA,NA,NA,NA,NA,NA,NA,"[]","large",2,"sch",6,41,2,2,2,1,2,1,"80216","24","male","man","","caucasian","","No","0",""
"42","6158f8d1ad08e224c817b97b","svTrial","survey",51,2030123,"0.0-2.0-49.0","65553732575bb29198a888d7","65565b580e819cf37058fe12",2,"14500","Hokkaido_large_sch_6_2.jpg",NA,NA,NA,NA,NA,NA,NA,NA,NA,NA,NA,NA,NA,NA,NA,NA,"[]","small",1,"pos",6,42,1,1,2,1,2,1,"80216","24","male","man","","caucasian","","No","0",""
"43","6158f8d1ad08e224c817b97b","svTrial","survey",52,2044796,"0.0-2.0-50.0","65553732575bb29198a888d7","65565b580e819cf37058fe12",2,"14658","Kanagawa_large_pos_5_2.jpg",NA,NA,NA,NA,NA,NA,NA,NA,NA,NA,NA,NA,NA,NA,NA,NA,"[]","small",1,"sch",5,43,3,3,3,3,4,1,"80216","24","male","man","","caucasian","","No","0",""
"44","6158f8d1ad08e224c817b97b","svTrial","survey",53,2070123,"0.0-2.0-51.0","65553732575bb29198a888d7","65565b580e819cf37058fe12",2,"25318","Hokkaido_small_sch_4_0.jpg",NA,NA,NA,NA,NA,NA,NA,NA,NA,NA,NA,NA,NA,NA,NA,NA,"[]","small",1,"pos",4,44,2,2,1,1,2,1,"80216","24","male","man","","caucasian","","No","0",""
"45","6158f8d1ad08e224c817b97b","svTrial","survey",54,2080295,"0.0-2.0-52.0","65553732575bb29198a888d7","65565b580e819cf37058fe12",2,"10159","Kanagawa_large_sch_3_0.jpg",NA,NA,NA,NA,NA,NA,NA,NA,NA,NA,NA,NA,NA,NA,NA,NA,"[]","small",1,"pos",3,45,4,3,3,3,4,1,"80216","24","male","man","","caucasian","","No","0",""
"46","6158f8d1ad08e224c817b97b","svTrial","survey",55,2120892,"0.0-2.0-53.0","65553732575bb29198a888d7","65565b580e819cf37058fe12",2,"40587","Ishikawa_large_sch_5_0.jpg",NA,NA,NA,NA,NA,NA,NA,NA,NA,NA,NA,NA,NA,NA,NA,NA,"[]","large",2,"sch",5,46,3,2,2,2,2,1,"80216","24","male","man","","caucasian","","No","0",""
"47","6158f8d1ad08e224c817b97b","svTrial","survey",56,2131466,"0.0-2.0-54.0","65553732575bb29198a888d7","65565b580e819cf37058fe12",2,"10559","Niigata_large_pos_8_0.jpg",NA,NA,NA,NA,NA,NA,NA,NA,NA,NA,NA,NA,NA,NA,NA,NA,"[]","middle",2,"pos",8,47,3,2,2,2,3,1,"80216","24","male","man","","caucasian","","No","0",""
"48","6158f8d1ad08e224c817b97b","svTrial","survey",57,2141407,"0.0-2.0-55.0","65553732575bb29198a888d7","65565b580e819cf37058fe12",2,"9933","Hokkaido_large_pos_12_2.jpg",NA,NA,NA,NA,NA,NA,NA,NA,NA,NA,NA,NA,NA,NA,NA,NA,"[]","middle",1,"sch",12,48,1,1,2,1,2,1,"80216","24","male","man","","caucasian","","No","0",""
