"","subject_id","task","trial_type","trial_index","time_elapsed","internal_node_id","study_id","session_id","group","rt","stimulus","width","height","webaudio","browser","browser_version","mobile","os","fullscreen","vsync_rate","webcam","microphone","success","timeout","failed_images","failed_audio","failed_video","accuracy","size","culture","loct","number","document.id","ambiguous","objects","invisible","chaos","complex","passedChecks","zipcode","age","sex","gender","gender-self-describe","ethnicity","ethnicity-self-describe","outsideUS","outsideUS_years","surveyComments"
"1","616cda4e2f5f884cdd46b2eb","svTrial","survey",8,433351,"0.0-2.0-6.0","65553732575bb29198a888d7","65565b6f561f52d800b52b3d",6,"106172","Hokkaido_large_sch_8_2.jpg",NA,NA,NA,NA,NA,NA,NA,NA,NA,NA,NA,NA,NA,NA,NA,NA,"[]","large",1,"pos",8,1,4,4,3,4,4,1,"37110","32","male","man","","caucasian","","No","",""
"2","616cda4e2f5f884cdd46b2eb","svTrial","survey",9,506608,"0.0-2.0-7.0","65553732575bb29198a888d7","65565b6f561f52d800b52b3d",6,"73230","Akita_middle_pos_1_1.jpg",NA,NA,NA,NA,NA,NA,NA,NA,NA,NA,NA,NA,NA,NA,NA,NA,"[]","middle",2,"pos",1,2,5,4,5,4,5,1,"37110","32","male","man","","caucasian","","No","",""
"3","616cda4e2f5f884cdd46b2eb","svTrial","survey",11,1064752,"0.0-2.0-9.0","65553732575bb29198a888d7","65565b6f561f52d800b52b3d",6,"535680","Akita_middle_pos_5_2.jpg",NA,NA,NA,NA,NA,NA,NA,NA,NA,NA,NA,NA,NA,NA,NA,NA,"[]","middle",2,"sch",5,3,4,4,4,4,4,1,"37110","32","male","man","","caucasian","","No","",""
"4","616cda4e2f5f884cdd46b2eb","svTrial","survey",12,1073927,"0.0-2.0-10.0","65553732575bb29198a888d7","65565b6f561f52d800b52b3d",6,"9154","Tokyo_large_sch_2_0.jpg",NA,NA,NA,NA,NA,NA,NA,NA,NA,NA,NA,NA,NA,NA,NA,NA,"[]","large",1,"pos",2,4,2,2,3,1,3,1,"37110","32","male","man","","caucasian","","No","",""
"5","616cda4e2f5f884cdd46b2eb","svTrial","survey",13,1081700,"0.0-2.0-11.0","65553732575bb29198a888d7","65565b6f561f52d800b52b3d",6,"7749","Toyama_large_pos_6_1.jpg",NA,NA,NA,NA,NA,NA,NA,NA,NA,NA,NA,NA,NA,NA,NA,NA,"[]","large",2,"pos",6,5,5,5,5,4,5,1,"37110","32","male","man","","caucasian","","No","",""
"6","616cda4e2f5f884cdd46b2eb","svTrial","survey",14,1091453,"0.0-2.0-12.0","65553732575bb29198a888d7","65565b6f561f52d800b52b3d",6,"9736","Okinawa_large_pos_9_1.jpg",NA,NA,NA,NA,NA,NA,NA,NA,NA,NA,NA,NA,NA,NA,NA,NA,"[]","small",1,"sch",9,6,2,1,2,2,2,1,"37110","32","male","man","","caucasian","","No","",""
"7","616cda4e2f5f884cdd46b2eb","svTrial","survey",15,1133733,"0.0-2.0-13.0","65553732575bb29198a888d7","65565b6f561f52d800b52b3d",6,"42260","Toyama_large_sch_10_1.jpg",NA,NA,NA,NA,NA,NA,NA,NA,NA,NA,NA,NA,NA,NA,NA,NA,"[]","large",2,"pos",10,7,2,1,2,1,1,1,"37110","32","male","man","","caucasian","","No","",""
"8","616cda4e2f5f884cdd46b2eb","svTrial","survey",16,1139532,"0.0-2.0-14.0","65553732575bb29198a888d7","65565b6f561f52d800b52b3d",6,"5776","Toyama_middle_sch_8_3.jpg",NA,NA,NA,NA,NA,NA,NA,NA,NA,NA,NA,NA,NA,NA,NA,NA,"[]","middle",2,"pos",8,8,4,3,4,4,4,1,"37110","32","male","man","","caucasian","","No","",""
"9","616cda4e2f5f884cdd46b2eb","svTrial","survey",17,1148892,"0.0-2.0-15.0","65553732575bb29198a888d7","65565b6f561f52d800b52b3d",6,"9341","Akita_middle_sch_8_1.jpg",NA,NA,NA,NA,NA,NA,NA,NA,NA,NA,NA,NA,NA,NA,NA,NA,"[]","large",2,"sch",8,9,4,4,4,4,4,1,"37110","32","male","man","","caucasian","","No","",""
"10","616cda4e2f5f884cdd46b2eb","svTrial","survey",18,1155148,"0.0-2.0-16.0","65553732575bb29198a888d7","65565b6f561f52d800b52b3d",6,"6239","Ishikawa_small_sch_3_2.jpg",NA,NA,NA,NA,NA,NA,NA,NA,NA,NA,NA,NA,NA,NA,NA,NA,"[]","large",2,"sch",3,10,1,1,1,1,1,1,"37110","32","male","man","","caucasian","","No","",""
"11","616cda4e2f5f884cdd46b2eb","svTrial","survey",19,1160852,"0.0-2.0-17.0","65553732575bb29198a888d7","65565b6f561f52d800b52b3d",6,"5685","Niigata_large_pos_11_1.jpg",NA,NA,NA,NA,NA,NA,NA,NA,NA,NA,NA,NA,NA,NA,NA,NA,"[]","large",2,"sch",11,11,3,2,2,2,2,1,"37110","32","male","man","","caucasian","","No","",""
"12","616cda4e2f5f884cdd46b2eb","svTrial","survey",20,1168644,"0.0-2.0-18.0","65553732575bb29198a888d7","65565b6f561f52d800b52b3d",6,"7776","Akita_large_pos_10_3.jpg",NA,NA,NA,NA,NA,NA,NA,NA,NA,NA,NA,NA,NA,NA,NA,NA,"[]","middle",2,"pos",10,12,5,4,5,4,5,1,"37110","32","male","man","","caucasian","","No","",""
"13","616cda4e2f5f884cdd46b2eb","svTrial","survey",21,1176252,"0.0-2.0-19.0","65553732575bb29198a888d7","65565b6f561f52d800b52b3d",6,"7591","Niigata_large_pos_12_2.jpg",NA,NA,NA,NA,NA,NA,NA,NA,NA,NA,NA,NA,NA,NA,NA,NA,"[]","large",2,"pos",12,13,4,4,3,3,4,1,"37110","32","male","man","","caucasian","","No","",""
"14","616cda4e2f5f884cdd46b2eb","svTrial","survey",22,1181671,"0.0-2.0-20.0","65553732575bb29198a888d7","65565b6f561f52d800b52b3d",6,"5403","Niigata_large_sch_7_1.jpg",NA,NA,NA,NA,NA,NA,NA,NA,NA,NA,NA,NA,NA,NA,NA,NA,"[]","small",2,"pos",7,14,1,1,1,1,1,1,"37110","32","male","man","","caucasian","","No","",""
"15","616cda4e2f5f884cdd46b2eb","svTrial","survey",23,1186902,"0.0-2.0-21.0","65553732575bb29198a888d7","65565b6f561f52d800b52b3d",6,"5216","Okinawa_large_pos_5_3.jpg",NA,NA,NA,NA,NA,NA,NA,NA,NA,NA,NA,NA,NA,NA,NA,NA,"[]","middle",1,"sch",5,15,3,2,3,2,3,1,"37110","32","male","man","","caucasian","","No","",""
"16","616cda4e2f5f884cdd46b2eb","svTrial","survey",24,1192491,"0.0-2.0-22.0","65553732575bb29198a888d7","65565b6f561f52d800b52b3d",6,"5575","Hokkaido_middle_pos_3_2.jpg",NA,NA,NA,NA,NA,NA,NA,NA,NA,NA,NA,NA,NA,NA,NA,NA,"[]","middle",1,"pos",3,16,2,2,2,2,2,1,"37110","32","male","man","","caucasian","","No","",""
"17","616cda4e2f5f884cdd46b2eb","svTrial","survey",25,1197675,"0.0-2.0-23.0","65553732575bb29198a888d7","65565b6f561f52d800b52b3d",6,"5169","Akita_large_pos_5_3.jpg",NA,NA,NA,NA,NA,NA,NA,NA,NA,NA,NA,NA,NA,NA,NA,NA,"[]","large",2,"pos",5,17,1,1,1,1,1,1,"37110","32","male","man","","caucasian","","No","",""
"18","616cda4e2f5f884cdd46b2eb","svTrial","survey",26,1202299,"0.0-2.0-24.0","65553732575bb29198a888d7","65565b6f561f52d800b52b3d",6,"4610","Tokyo_middle_pos_6_1.jpg",NA,NA,NA,NA,NA,NA,NA,NA,NA,NA,NA,NA,NA,NA,NA,NA,"[]","large",1,"pos",6,18,5,5,5,4,5,1,"37110","32","male","man","","caucasian","","No","",""
"19","616cda4e2f5f884cdd46b2eb","svTrial","survey",27,1213900,"0.0-2.0-25.0","65553732575bb29198a888d7","65565b6f561f52d800b52b3d",6,"11586","Okinawa_middle_sch_1_3.jpg",NA,NA,NA,NA,NA,NA,NA,NA,NA,NA,NA,NA,NA,NA,NA,NA,"[]","small",1,"sch",1,19,2,2,2,1,1,1,"37110","32","male","man","","caucasian","","No","",""
"20","616cda4e2f5f884cdd46b2eb","svTrial","survey",28,1219123,"0.0-2.0-26.0","65553732575bb29198a888d7","65565b6f561f52d800b52b3d",6,"5207","Okinawa_large_pos_2_2.jpg",NA,NA,NA,NA,NA,NA,NA,NA,NA,NA,NA,NA,NA,NA,NA,NA,"[]","small",1,"sch",2,20,4,4,4,3,4,1,"37110","32","male","man","","caucasian","","No","",""
"21","616cda4e2f5f884cdd46b2eb","svTrial","survey",29,1226708,"0.0-2.0-27.0","65553732575bb29198a888d7","65565b6f561f52d800b52b3d",6,"7570","Hokkaido_small_pos_2_3.jpg",NA,NA,NA,NA,NA,NA,NA,NA,NA,NA,NA,NA,NA,NA,NA,NA,"[]","middle",1,"sch",2,21,1,1,1,1,1,1,"37110","32","male","man","","caucasian","","No","",""
"22","616cda4e2f5f884cdd46b2eb","svTrial","survey",30,1233996,"0.0-2.0-28.0","65553732575bb29198a888d7","65565b6f561f52d800b52b3d",6,"7273","Niigata_large_pos_5_2.jpg",NA,NA,NA,NA,NA,NA,NA,NA,NA,NA,NA,NA,NA,NA,NA,NA,"[]","small",2,"sch",5,22,2,1,1,1,1,1,"37110","32","male","man","","caucasian","","No","",""
"23","616cda4e2f5f884cdd46b2eb","svTrial","survey",31,1241987,"0.0-2.0-29.0","65553732575bb29198a888d7","65565b6f561f52d800b52b3d",6,"7974","Toyama_large_pos_1_1.jpg",NA,NA,NA,NA,NA,NA,NA,NA,NA,NA,NA,NA,NA,NA,NA,NA,"[]","large",2,"sch",1,23,2,1,1,1,1,1,"37110","32","male","man","","caucasian","","No","",""
"24","616cda4e2f5f884cdd46b2eb","svTrial","survey",32,1262686,"0.0-2.0-30.0","65553732575bb29198a888d7","65565b6f561f52d800b52b3d",6,"20681","Ishikawa_large_sch_3_1.jpg",NA,NA,NA,NA,NA,NA,NA,NA,NA,NA,NA,NA,NA,NA,NA,NA,"[]","middle",2,"pos",3,24,2,2,1,2,1,1,"37110","32","male","man","","caucasian","","No","",""
"25","616cda4e2f5f884cdd46b2eb","svTrial","survey",34,1273395,"0.0-2.0-32.0","65553732575bb29198a888d7","65565b6f561f52d800b52b3d",6,"7910","Niigata_small_pos_2_2.jpg",NA,NA,NA,NA,NA,NA,NA,NA,NA,NA,NA,NA,NA,NA,NA,NA,"[]","large",2,"sch",2,25,2,1,1,1,1,1,"37110","32","male","man","","caucasian","","No","",""
"26","616cda4e2f5f884cdd46b2eb","svTrial","survey",35,1282236,"0.0-2.0-33.0","65553732575bb29198a888d7","65565b6f561f52d800b52b3d",6,"8824","Kanagawa_middle_pos_1_0.jpg",NA,NA,NA,NA,NA,NA,NA,NA,NA,NA,NA,NA,NA,NA,NA,NA,"[]","small",1,"pos",1,26,3,3,3,3,3,1,"37110","32","male","man","","caucasian","","No","",""
"27","616cda4e2f5f884cdd46b2eb","svTrial","survey",36,1287707,"0.0-2.0-34.0","65553732575bb29198a888d7","65565b6f561f52d800b52b3d",6,"5455","Toyama_large_pos_11_0.jpg",NA,NA,NA,NA,NA,NA,NA,NA,NA,NA,NA,NA,NA,NA,NA,NA,"[]","small",2,"sch",11,27,1,1,1,1,1,1,"37110","32","male","man","","caucasian","","No","",""
"28","616cda4e2f5f884cdd46b2eb","svTrial","survey",37,1293820,"0.0-2.0-35.0","65553732575bb29198a888d7","65565b6f561f52d800b52b3d",6,"6098","Okinawa_large_sch_5_1.jpg",NA,NA,NA,NA,NA,NA,NA,NA,NA,NA,NA,NA,NA,NA,NA,NA,"[]","small",1,"pos",5,28,1,1,2,1,1,1,"37110","32","male","man","","caucasian","","No","",""
"29","616cda4e2f5f884cdd46b2eb","svTrial","survey",38,1300653,"0.0-2.0-36.0","65553732575bb29198a888d7","65565b6f561f52d800b52b3d",6,"6819","Ishikawa_small_pos_4_0.jpg",NA,NA,NA,NA,NA,NA,NA,NA,NA,NA,NA,NA,NA,NA,NA,NA,"[]","small",2,"sch",4,29,1,1,1,2,1,1,"37110","32","male","man","","caucasian","","No","",""
"30","616cda4e2f5f884cdd46b2eb","svTrial","survey",39,1309204,"0.0-2.0-37.0","65553732575bb29198a888d7","65565b6f561f52d800b52b3d",6,"8535","Okinawa_middle_pos_1_0.jpg",NA,NA,NA,NA,NA,NA,NA,NA,NA,NA,NA,NA,NA,NA,NA,NA,"[]","middle",1,"pos",1,30,2,2,2,2,3,1,"37110","32","male","man","","caucasian","","No","",""
"31","616cda4e2f5f884cdd46b2eb","svTrial","survey",40,1314541,"0.0-2.0-38.0","65553732575bb29198a888d7","65565b6f561f52d800b52b3d",6,"5322","Okinawa_middle_pos_3_2.jpg",NA,NA,NA,NA,NA,NA,NA,NA,NA,NA,NA,NA,NA,NA,NA,NA,"[]","middle",1,"sch",3,31,4,3,3,3,4,1,"37110","32","male","man","","caucasian","","No","",""
"32","616cda4e2f5f884cdd46b2eb","svTrial","survey",41,1346795,"0.0-2.0-39.0","65553732575bb29198a888d7","65565b6f561f52d800b52b3d",6,"32238","Okinawa_small_sch_4_1.jpg",NA,NA,NA,NA,NA,NA,NA,NA,NA,NA,NA,NA,NA,NA,NA,NA,"[]","large",1,"sch",4,32,3,2,3,3,3,1,"37110","32","male","man","","caucasian","","No","",""
"33","616cda4e2f5f884cdd46b2eb","svTrial","survey",42,1355362,"0.0-2.0-40.0","65553732575bb29198a888d7","65565b6f561f52d800b52b3d",6,"8552","Ishikawa_middle_pos_1_2.jpg",NA,NA,NA,NA,NA,NA,NA,NA,NA,NA,NA,NA,NA,NA,NA,NA,"[]","small",2,"sch",1,33,3,2,3,3,3,1,"37110","32","male","man","","caucasian","","No","",""
"34","616cda4e2f5f884cdd46b2eb","svTrial","survey",43,1362043,"0.0-2.0-41.0","65553732575bb29198a888d7","65565b6f561f52d800b52b3d",6,"6665","Niigata_middle_sch_4_1.jpg",NA,NA,NA,NA,NA,NA,NA,NA,NA,NA,NA,NA,NA,NA,NA,NA,"[]","middle",2,"sch",4,34,1,1,1,1,1,1,"37110","32","male","man","","caucasian","","No","",""
"35","616cda4e2f5f884cdd46b2eb","svTrial","survey",44,1370305,"0.0-2.0-42.0","65553732575bb29198a888d7","65565b6f561f52d800b52b3d",6,"8245","Okinawa_small_sch_1_1.jpg",NA,NA,NA,NA,NA,NA,NA,NA,NA,NA,NA,NA,NA,NA,NA,NA,"[]","middle",1,"pos",1,35,1,1,1,1,1,1,"37110","32","male","man","","caucasian","","No","",""
"36","616cda4e2f5f884cdd46b2eb","svTrial","survey",45,1384531,"0.0-2.0-43.0","65553732575bb29198a888d7","65565b6f561f52d800b52b3d",6,"14210","Kanagawa_large_sch_12_0.jpg",NA,NA,NA,NA,NA,NA,NA,NA,NA,NA,NA,NA,NA,NA,NA,NA,"[]","large",1,"pos",12,36,4,4,5,4,5,1,"37110","32","male","man","","caucasian","","No","",""
"37","616cda4e2f5f884cdd46b2eb","svTrial","survey",46,1546602,"0.0-2.0-44.0","65553732575bb29198a888d7","65565b6f561f52d800b52b3d",6,"162051","Akita_large_pos_7_1.jpg",NA,NA,NA,NA,NA,NA,NA,NA,NA,NA,NA,NA,NA,NA,NA,NA,"[]","large",2,"sch",7,37,2,2,2,1,1,1,"37110","32","male","man","","caucasian","","No","",""
"38","616cda4e2f5f884cdd46b2eb","svTrial","survey",47,1551681,"0.0-2.0-45.0","65553732575bb29198a888d7","65565b6f561f52d800b52b3d",6,"5063","Akita_large_sch_12_1.jpg",NA,NA,NA,NA,NA,NA,NA,NA,NA,NA,NA,NA,NA,NA,NA,NA,"[]","small",2,"pos",12,38,5,4,5,4,5,1,"37110","32","male","man","","caucasian","","No","",""
"39","616cda4e2f5f884cdd46b2eb","svTrial","survey",48,1556809,"0.0-2.0-46.0","65553732575bb29198a888d7","65565b6f561f52d800b52b3d",6,"5112","Hokkaido_large_pos_9_0.jpg",NA,NA,NA,NA,NA,NA,NA,NA,NA,NA,NA,NA,NA,NA,NA,NA,"[]","small",1,"sch",9,39,5,5,5,5,5,1,"37110","32","male","man","","caucasian","","No","",""
"40","616cda4e2f5f884cdd46b2eb","svTrial","survey",49,1563297,"0.0-2.0-47.0","65553732575bb29198a888d7","65565b6f561f52d800b52b3d",6,"6474","Tokyo_middle_sch_2_0.jpg",NA,NA,NA,NA,NA,NA,NA,NA,NA,NA,NA,NA,NA,NA,NA,NA,"[]","middle",1,"pos",2,40,2,2,3,1,3,1,"37110","32","male","man","","caucasian","","No","",""
"41","616cda4e2f5f884cdd46b2eb","svTrial","survey",50,1568407,"0.0-2.0-48.0","65553732575bb29198a888d7","65565b6f561f52d800b52b3d",6,"5095","Hokkaido_middle_sch_4_0.jpg",NA,NA,NA,NA,NA,NA,NA,NA,NA,NA,NA,NA,NA,NA,NA,NA,"[]","middle",1,"sch",4,41,1,1,1,1,1,1,"37110","32","male","man","","caucasian","","No","",""
"42","616cda4e2f5f884cdd46b2eb","svTrial","survey",51,1572832,"0.0-2.0-49.0","65553732575bb29198a888d7","65565b6f561f52d800b52b3d",6,"4409","Okinawa_middle_sch_4_2.jpg",NA,NA,NA,NA,NA,NA,NA,NA,NA,NA,NA,NA,NA,NA,NA,NA,"[]","small",1,"pos",4,42,4,3,4,3,3,1,"37110","32","male","man","","caucasian","","No","",""
"43","616cda4e2f5f884cdd46b2eb","svTrial","survey",52,1579344,"0.0-2.0-50.0","65553732575bb29198a888d7","65565b6f561f52d800b52b3d",6,"6496","Ishikawa_large_sch_10_0.jpg",NA,NA,NA,NA,NA,NA,NA,NA,NA,NA,NA,NA,NA,NA,NA,NA,"[]","middle",2,"pos",10,43,2,3,2,2,3,1,"37110","32","male","man","","caucasian","","No","",""
"44","616cda4e2f5f884cdd46b2eb","svTrial","survey",53,1586432,"0.0-2.0-51.0","65553732575bb29198a888d7","65565b6f561f52d800b52b3d",6,"7074","Okinawa_large_pos_3_2.jpg",NA,NA,NA,NA,NA,NA,NA,NA,NA,NA,NA,NA,NA,NA,NA,NA,"[]","large",1,"sch",3,44,1,1,1,1,1,1,"37110","32","male","man","","caucasian","","No","",""
"45","616cda4e2f5f884cdd46b2eb","svTrial","survey",54,1592625,"0.0-2.0-52.0","65553732575bb29198a888d7","65565b6f561f52d800b52b3d",6,"6178","Okinawa_large_sch_12_3.jpg",NA,NA,NA,NA,NA,NA,NA,NA,NA,NA,NA,NA,NA,NA,NA,NA,"[]","large",1,"pos",12,45,3,3,2,3,2,1,"37110","32","male","man","","caucasian","","No","",""
"46","616cda4e2f5f884cdd46b2eb","svTrial","survey",55,1597032,"0.0-2.0-53.0","65553732575bb29198a888d7","65565b6f561f52d800b52b3d",6,"4393","Ishikawa_large_pos_2_3.jpg",NA,NA,NA,NA,NA,NA,NA,NA,NA,NA,NA,NA,NA,NA,NA,NA,"[]","large",2,"pos",2,46,4,4,4,4,5,1,"37110","32","male","man","","caucasian","","No","",""
"47","616cda4e2f5f884cdd46b2eb","svTrial","survey",56,1638161,"0.0-2.0-54.0","65553732575bb29198a888d7","65565b6f561f52d800b52b3d",6,"41112","Hokkaido_large_pos_10_0.jpg",NA,NA,NA,NA,NA,NA,NA,NA,NA,NA,NA,NA,NA,NA,NA,NA,"[]","small",1,"sch",10,47,1,1,1,1,1,1,"37110","32","male","man","","caucasian","","No","",""
"48","616cda4e2f5f884cdd46b2eb","svTrial","survey",57,1643921,"0.0-2.0-55.0","65553732575bb29198a888d7","65565b6f561f52d800b52b3d",6,"5741","Hokkaido_large_sch_5_2.jpg",NA,NA,NA,NA,NA,NA,NA,NA,NA,NA,NA,NA,NA,NA,NA,NA,"[]","middle",1,"pos",5,48,3,2,2,3,2,1,"37110","32","male","man","","caucasian","","No","",""
