"","subject_id","task","trial_type","trial_index","time_elapsed","internal_node_id","study_id","session_id","group","rt","stimulus","width","height","webaudio","browser","browser_version","mobile","os","fullscreen","vsync_rate","webcam","microphone","success","timeout","failed_images","failed_audio","failed_video","accuracy","size","culture","loct","number","document.id","ambiguous","objects","invisible","chaos","complex","passedChecks","zipcode","age","gender","gender-self-describe","ethnicity","ethnicity-self-describe","outsideUS","outsideUS_years","surveyComments"
"1","6286588610e848e43598e9d0","svTrial","survey",8,67843,"0.0-2.0-6.0","65553732575bb29198a888d7","65565250e23e48fd6f95c2f8",2,"25613","Tokyo_large_pos_5_1.jpg",NA,NA,NA,NA,NA,NA,NA,NA,NA,NA,NA,NA,NA,NA,NA,NA,"[]","middle",1,"pos",5,1,2,4,1,4,3,1,"","","man","","caucasian","","No","",""
"2","6286588610e848e43598e9d0","svTrial","survey",9,86590,"0.0-2.0-7.0","65553732575bb29198a888d7","65565250e23e48fd6f95c2f8",2,"18725","Okinawa_large_sch_8_1.jpg",NA,NA,NA,NA,NA,NA,NA,NA,NA,NA,NA,NA,NA,NA,NA,NA,"[]","middle",1,"sch",8,2,4,2,3,2,2,1,"","","man","","caucasian","","No","",""
"3","6286588610e848e43598e9d0","svTrial","survey",10,104242,"0.0-2.0-8.0","65553732575bb29198a888d7","65565250e23e48fd6f95c2f8",2,"17634","Okinawa_small_pos_2_0.jpg",NA,NA,NA,NA,NA,NA,NA,NA,NA,NA,NA,NA,NA,NA,NA,NA,"[]","large",1,"pos",2,3,4,2,3,2,2,1,"","","man","","caucasian","","No","",""
"4","6286588610e848e43598e9d0","svTrial","survey",11,124451,"0.0-2.0-9.0","65553732575bb29198a888d7","65565250e23e48fd6f95c2f8",2,"20198","Akita_large_sch_3_0.jpg",NA,NA,NA,NA,NA,NA,NA,NA,NA,NA,NA,NA,NA,NA,NA,NA,"[]","small",2,"sch",3,4,2,4,2,2,2,1,"","","man","","caucasian","","No","",""
"5","6286588610e848e43598e9d0","svTrial","survey",12,142331,"0.0-2.0-10.0","65553732575bb29198a888d7","65565250e23e48fd6f95c2f8",2,"17862","Toyama_small_pos_4_3.jpg",NA,NA,NA,NA,NA,NA,NA,NA,NA,NA,NA,NA,NA,NA,NA,NA,"[]","small",2,"sch",4,5,2,1,2,2,1,1,"","","man","","caucasian","","No","",""
"6","6286588610e848e43598e9d0","svTrial","survey",13,165641,"0.0-2.0-11.0","65553732575bb29198a888d7","65565250e23e48fd6f95c2f8",2,"23292","Toyama_small_sch_4_3.jpg",NA,NA,NA,NA,NA,NA,NA,NA,NA,NA,NA,NA,NA,NA,NA,NA,"[]","middle",2,"sch",4,6,4,2,3,3,2,1,"","","man","","caucasian","","No","",""
"7","6286588610e848e43598e9d0","svTrial","survey",14,187765,"0.0-2.0-12.0","65553732575bb29198a888d7","65565250e23e48fd6f95c2f8",2,"22108","Hokkaido_small_sch_4_1.jpg",NA,NA,NA,NA,NA,NA,NA,NA,NA,NA,NA,NA,NA,NA,NA,NA,"[]","small",1,"pos",4,7,4,3,2,2,2,1,"","","man","","caucasian","","No","",""
"8","6286588610e848e43598e9d0","svTrial","survey",15,222538,"0.0-2.0-13.0","65553732575bb29198a888d7","65565250e23e48fd6f95c2f8",2,"34756","Niigata_middle_pos_8_1.jpg",NA,NA,NA,NA,NA,NA,NA,NA,NA,NA,NA,NA,NA,NA,NA,NA,"[]","middle",2,"pos",8,8,4,4,4,4,3,1,"","","man","","caucasian","","No","",""
"9","6286588610e848e43598e9d0","svTrial","survey",16,245196,"0.0-2.0-14.0","65553732575bb29198a888d7","65565250e23e48fd6f95c2f8",2,"22636","Kanagawa_large_sch_3_2.jpg",NA,NA,NA,NA,NA,NA,NA,NA,NA,NA,NA,NA,NA,NA,NA,NA,"[]","small",1,"pos",3,9,3,3,1,3,3,1,"","","man","","caucasian","","No","",""
"10","6286588610e848e43598e9d0","svTrial","survey",17,262300,"0.0-2.0-15.0","65553732575bb29198a888d7","65565250e23e48fd6f95c2f8",2,"17088","Akita_middle_sch_2_0.jpg",NA,NA,NA,NA,NA,NA,NA,NA,NA,NA,NA,NA,NA,NA,NA,NA,"[]","middle",2,"sch",2,10,3,1,1,2,1,1,"","","man","","caucasian","","No","",""
"11","6286588610e848e43598e9d0","svTrial","survey",18,280280,"0.0-2.0-16.0","65553732575bb29198a888d7","65565250e23e48fd6f95c2f8",2,"17964","Toyama_small_sch_2_1.jpg",NA,NA,NA,NA,NA,NA,NA,NA,NA,NA,NA,NA,NA,NA,NA,NA,"[]","large",2,"pos",2,11,4,2,1,2,2,1,"","","man","","caucasian","","No","",""
"12","6286588610e848e43598e9d0","svTrial","survey",19,299677,"0.0-2.0-17.0","65553732575bb29198a888d7","65565250e23e48fd6f95c2f8",2,"19381","Kanagawa_large_sch_6_2.jpg",NA,NA,NA,NA,NA,NA,NA,NA,NA,NA,NA,NA,NA,NA,NA,NA,"[]","middle",1,"pos",6,12,4,3,2,4,4,1,"","","man","","caucasian","","No","",""
"13","6286588610e848e43598e9d0","svTrial","survey",20,324605,"0.0-2.0-18.0","65553732575bb29198a888d7","65565250e23e48fd6f95c2f8",2,"24910","Okinawa_large_sch_3_0.jpg",NA,NA,NA,NA,NA,NA,NA,NA,NA,NA,NA,NA,NA,NA,NA,NA,"[]","large",1,"pos",3,13,4,3,2,2,3,1,"","","man","","caucasian","","No","",""
"14","6286588610e848e43598e9d0","svTrial","survey",21,342003,"0.0-2.0-19.0","65553732575bb29198a888d7","65565250e23e48fd6f95c2f8",2,"17382","Tokyo_middle_sch_8_1.jpg",NA,NA,NA,NA,NA,NA,NA,NA,NA,NA,NA,NA,NA,NA,NA,NA,"[]","small",1,"sch",8,14,3,3,3,3,3,1,"","","man","","caucasian","","No","",""
"15","6286588610e848e43598e9d0","svTrial","survey",22,353052,"0.0-2.0-20.0","65553732575bb29198a888d7","65565250e23e48fd6f95c2f8",2,"11031","Hokkaido_middle_sch_3_3.jpg",NA,NA,NA,NA,NA,NA,NA,NA,NA,NA,NA,NA,NA,NA,NA,NA,"[]","middle",1,"sch",3,15,5,1,1,1,1,1,"","","man","","caucasian","","No","",""
"16","6286588610e848e43598e9d0","svTrial","survey",23,368891,"0.0-2.0-21.0","65553732575bb29198a888d7","65565250e23e48fd6f95c2f8",2,"15825","Ishikawa_large_sch_1_3.jpg",NA,NA,NA,NA,NA,NA,NA,NA,NA,NA,NA,NA,NA,NA,NA,NA,"[]","middle",2,"sch",1,16,4,2,1,2,2,1,"","","man","","caucasian","","No","",""
"17","6286588610e848e43598e9d0","svTrial","survey",24,383567,"0.0-2.0-22.0","65553732575bb29198a888d7","65565250e23e48fd6f95c2f8",2,"14662","Kanagawa_small_pos_3_1.jpg",NA,NA,NA,NA,NA,NA,NA,NA,NA,NA,NA,NA,NA,NA,NA,NA,"[]","large",1,"sch",3,17,4,3,1,4,4,1,"","","man","","caucasian","","No","",""
"18","6286588610e848e43598e9d0","svTrial","survey",25,399972,"0.0-2.0-23.0","65553732575bb29198a888d7","65565250e23e48fd6f95c2f8",2,"16392","Niigata_middle_sch_5_3.jpg",NA,NA,NA,NA,NA,NA,NA,NA,NA,NA,NA,NA,NA,NA,NA,NA,"[]","small",2,"pos",5,18,2,3,1,1,2,1,"","","man","","caucasian","","No","",""
"19","6286588610e848e43598e9d0","svTrial","survey",26,410603,"0.0-2.0-24.0","65553732575bb29198a888d7","65565250e23e48fd6f95c2f8",2,"10616","Toyama_large_sch_1_1.jpg",NA,NA,NA,NA,NA,NA,NA,NA,NA,NA,NA,NA,NA,NA,NA,NA,"[]","middle",2,"sch",1,19,4,1,1,2,1,1,"","","man","","caucasian","","No","",""
"20","6286588610e848e43598e9d0","svTrial","survey",27,422541,"0.0-2.0-25.0","65553732575bb29198a888d7","65565250e23e48fd6f95c2f8",2,"11922","Toyama_large_pos_3_0.jpg",NA,NA,NA,NA,NA,NA,NA,NA,NA,NA,NA,NA,NA,NA,NA,NA,"[]","middle",2,"pos",3,20,3,1,1,2,2,1,"","","man","","caucasian","","No","",""
"21","6286588610e848e43598e9d0","svTrial","survey",28,431803,"0.0-2.0-26.0","65553732575bb29198a888d7","65565250e23e48fd6f95c2f8",2,"9248","Toyama_large_sch_5_0.jpg",NA,NA,NA,NA,NA,NA,NA,NA,NA,NA,NA,NA,NA,NA,NA,NA,"[]","large",2,"sch",5,21,5,1,1,1,1,1,"","","man","","caucasian","","No","",""
"22","6286588610e848e43598e9d0","svTrial","survey",29,446437,"0.0-2.0-27.0","65553732575bb29198a888d7","65565250e23e48fd6f95c2f8",2,"14621","Okinawa_large_pos_4_3.jpg",NA,NA,NA,NA,NA,NA,NA,NA,NA,NA,NA,NA,NA,NA,NA,NA,"[]","large",1,"sch",4,22,3,3,1,4,3,1,"","","man","","caucasian","","No","",""
"23","6286588610e848e43598e9d0","svTrial","survey",30,456612,"0.0-2.0-28.0","65553732575bb29198a888d7","65565250e23e48fd6f95c2f8",2,"10158","Hokkaido_large_pos_12_0.jpg",NA,NA,NA,NA,NA,NA,NA,NA,NA,NA,NA,NA,NA,NA,NA,NA,"[]","middle",1,"sch",12,23,2,2,1,2,2,1,"","","man","","caucasian","","No","",""
"24","6286588610e848e43598e9d0","svTrial","survey",31,465915,"0.0-2.0-29.0","65553732575bb29198a888d7","65565250e23e48fd6f95c2f8",2,"9287","Akita_large_pos_8_3.jpg",NA,NA,NA,NA,NA,NA,NA,NA,NA,NA,NA,NA,NA,NA,NA,NA,"[]","middle",2,"pos",8,24,4,3,1,3,3,1,"","","man","","caucasian","","No","",""
"25","6286588610e848e43598e9d0","svTrial","survey",33,484086,"0.0-2.0-31.0","65553732575bb29198a888d7","65565250e23e48fd6f95c2f8",2,"11521","Kanagawa_small_pos_2_0.jpg",NA,NA,NA,NA,NA,NA,NA,NA,NA,NA,NA,NA,NA,NA,NA,NA,"[]","small",1,"sch",2,25,4,4,1,4,4,1,"","","man","","caucasian","","No","",""
"26","6286588610e848e43598e9d0","svTrial","survey",34,497997,"0.0-2.0-32.0","65553732575bb29198a888d7","65565250e23e48fd6f95c2f8",2,"13896","Okinawa_large_sch_1_2.jpg",NA,NA,NA,NA,NA,NA,NA,NA,NA,NA,NA,NA,NA,NA,NA,NA,"[]","middle",1,"pos",1,26,3,3,1,3,3,1,"","","man","","caucasian","","No","",""
"27","6286588610e848e43598e9d0","svTrial","survey",35,506659,"0.0-2.0-33.0","65553732575bb29198a888d7","65565250e23e48fd6f95c2f8",2,"8647","Hokkaido_large_sch_6_3.jpg",NA,NA,NA,NA,NA,NA,NA,NA,NA,NA,NA,NA,NA,NA,NA,NA,"[]","small",1,"pos",6,27,4,2,1,2,2,1,"","","man","","caucasian","","No","",""
"28","6286588610e848e43598e9d0","svTrial","survey",36,515456,"0.0-2.0-34.0","65553732575bb29198a888d7","65565250e23e48fd6f95c2f8",2,"8783","Toyama_middle_pos_2_2.jpg",NA,NA,NA,NA,NA,NA,NA,NA,NA,NA,NA,NA,NA,NA,NA,NA,"[]","middle",2,"pos",2,28,3,2,1,2,2,1,"","","man","","caucasian","","No","",""
"29","6286588610e848e43598e9d0","svTrial","survey",37,523594,"0.0-2.0-35.0","65553732575bb29198a888d7","65565250e23e48fd6f95c2f8",2,"8126","Niigata_large_sch_4_1.jpg",NA,NA,NA,NA,NA,NA,NA,NA,NA,NA,NA,NA,NA,NA,NA,NA,"[]","small",2,"sch",4,29,2,1,1,1,1,1,"","","man","","caucasian","","No","",""
"30","6286588610e848e43598e9d0","svTrial","survey",38,535123,"0.0-2.0-36.0","65553732575bb29198a888d7","65565250e23e48fd6f95c2f8",2,"11518","Kanagawa_large_sch_4_2.jpg",NA,NA,NA,NA,NA,NA,NA,NA,NA,NA,NA,NA,NA,NA,NA,NA,"[]","middle",1,"sch",4,30,5,2,1,2,3,1,"","","man","","caucasian","","No","",""
"31","6286588610e848e43598e9d0","svTrial","survey",39,545320,"0.0-2.0-37.0","65553732575bb29198a888d7","65565250e23e48fd6f95c2f8",2,"10183","Toyama_middle_pos_5_0.jpg",NA,NA,NA,NA,NA,NA,NA,NA,NA,NA,NA,NA,NA,NA,NA,NA,"[]","large",2,"sch",5,31,2,1,1,2,2,1,"","","man","","caucasian","","No","",""
"32","6286588610e848e43598e9d0","svTrial","survey",40,554747,"0.0-2.0-38.0","65553732575bb29198a888d7","65565250e23e48fd6f95c2f8",2,"9411","Akita_large_pos_6_1.jpg",NA,NA,NA,NA,NA,NA,NA,NA,NA,NA,NA,NA,NA,NA,NA,NA,"[]","large",2,"sch",6,32,1,1,1,1,1,1,"","","man","","caucasian","","No","",""
"33","6286588610e848e43598e9d0","svTrial","survey",41,574182,"0.0-2.0-39.0","65553732575bb29198a888d7","65565250e23e48fd6f95c2f8",2,"19419","Tokyo_large_pos_6_0.jpg",NA,NA,NA,NA,NA,NA,NA,NA,NA,NA,NA,NA,NA,NA,NA,NA,"[]","middle",1,"pos",6,33,5,3,1,2,1,1,"","","man","","caucasian","","No","",""
"34","6286588610e848e43598e9d0","svTrial","survey",42,584402,"0.0-2.0-40.0","65553732575bb29198a888d7","65565250e23e48fd6f95c2f8",2,"10207","Hokkaido_middle_sch_5_1.jpg",NA,NA,NA,NA,NA,NA,NA,NA,NA,NA,NA,NA,NA,NA,NA,NA,"[]","small",1,"pos",5,34,2,1,1,2,2,1,"","","man","","caucasian","","No","",""
"35","6286588610e848e43598e9d0","svTrial","survey",44,611483,"0.0-2.0-42.0","65553732575bb29198a888d7","65565250e23e48fd6f95c2f8",2,"17030","Niigata_large_pos_8_2.jpg",NA,NA,NA,NA,NA,NA,NA,NA,NA,NA,NA,NA,NA,NA,NA,NA,"[]","middle",2,"pos",8,35,4,4,1,4,4,1,"","","man","","caucasian","","No","",""
"36","6286588610e848e43598e9d0","svTrial","survey",45,626586,"0.0-2.0-43.0","65553732575bb29198a888d7","65565250e23e48fd6f95c2f8",2,"15085","Toyama_middle_pos_4_0.jpg",NA,NA,NA,NA,NA,NA,NA,NA,NA,NA,NA,NA,NA,NA,NA,NA,"[]","large",2,"sch",4,36,5,1,3,3,1,1,"","","man","","caucasian","","No","",""
"37","6286588610e848e43598e9d0","svTrial","survey",46,638532,"0.0-2.0-44.0","65553732575bb29198a888d7","65565250e23e48fd6f95c2f8",2,"11929","Kanagawa_large_sch_7_3.jpg",NA,NA,NA,NA,NA,NA,NA,NA,NA,NA,NA,NA,NA,NA,NA,NA,"[]","middle",1,"pos",7,37,4,4,1,4,3,1,"","","man","","caucasian","","No","",""
"38","6286588610e848e43598e9d0","svTrial","survey",47,660088,"0.0-2.0-45.0","65553732575bb29198a888d7","65565250e23e48fd6f95c2f8",2,"21539","Kanagawa_large_pos_5_0.jpg",NA,NA,NA,NA,NA,NA,NA,NA,NA,NA,NA,NA,NA,NA,NA,NA,"[]","small",1,"sch",5,38,4,4,1,4,4,1,"","","man","","caucasian","","No","",""
"39","6286588610e848e43598e9d0","svTrial","survey",48,670963,"0.0-2.0-46.0","65553732575bb29198a888d7","65565250e23e48fd6f95c2f8",2,"10859","Niigata_large_sch_8_1.jpg",NA,NA,NA,NA,NA,NA,NA,NA,NA,NA,NA,NA,NA,NA,NA,NA,"[]","middle",2,"sch",8,39,4,2,1,2,2,1,"","","man","","caucasian","","No","",""
"40","6286588610e848e43598e9d0","svTrial","survey",49,679963,"0.0-2.0-47.0","65553732575bb29198a888d7","65565250e23e48fd6f95c2f8",2,"8982","Toyama_middle_pos_7_3.jpg",NA,NA,NA,NA,NA,NA,NA,NA,NA,NA,NA,NA,NA,NA,NA,NA,"[]","large",2,"sch",7,40,4,1,1,2,2,1,"","","man","","caucasian","","No","",""
"41","6286588610e848e43598e9d0","svTrial","survey",50,691437,"0.0-2.0-48.0","65553732575bb29198a888d7","65565250e23e48fd6f95c2f8",2,"11459","Toyama_large_sch_12_1.jpg",NA,NA,NA,NA,NA,NA,NA,NA,NA,NA,NA,NA,NA,NA,NA,NA,"[]","small",2,"pos",12,41,2,2,1,2,1,1,"","","man","","caucasian","","No","",""
"42","6286588610e848e43598e9d0","svTrial","survey",51,702887,"0.0-2.0-49.0","65553732575bb29198a888d7","65565250e23e48fd6f95c2f8",2,"11435","Okinawa_large_sch_9_2.jpg",NA,NA,NA,NA,NA,NA,NA,NA,NA,NA,NA,NA,NA,NA,NA,NA,"[]","small",1,"sch",9,42,5,4,1,3,3,1,"","","man","","caucasian","","No","",""
"43","6286588610e848e43598e9d0","svTrial","survey",52,714363,"0.0-2.0-50.0","65553732575bb29198a888d7","65565250e23e48fd6f95c2f8",2,"11464","Akita_middle_sch_7_0.jpg",NA,NA,NA,NA,NA,NA,NA,NA,NA,NA,NA,NA,NA,NA,NA,NA,"[]","large",2,"sch",7,43,3,1,1,2,2,1,"","","man","","caucasian","","No","",""
"44","6286588610e848e43598e9d0","svTrial","survey",53,724627,"0.0-2.0-51.0","65553732575bb29198a888d7","65565250e23e48fd6f95c2f8",2,"10249","Kanagawa_middle_sch_3_0.jpg",NA,NA,NA,NA,NA,NA,NA,NA,NA,NA,NA,NA,NA,NA,NA,NA,"[]","large",1,"sch",3,44,4,3,1,2,3,1,"","","man","","caucasian","","No","",""
"45","6286588610e848e43598e9d0","svTrial","survey",54,733610,"0.0-2.0-52.0","65553732575bb29198a888d7","65565250e23e48fd6f95c2f8",2,"8968","Ishikawa_large_sch_5_0.jpg",NA,NA,NA,NA,NA,NA,NA,NA,NA,NA,NA,NA,NA,NA,NA,NA,"[]","large",2,"sch",5,45,4,1,1,1,1,1,"","","man","","caucasian","","No","",""
"46","6286588610e848e43598e9d0","svTrial","survey",55,747108,"0.0-2.0-53.0","65553732575bb29198a888d7","65565250e23e48fd6f95c2f8",2,"13487","Niigata_large_pos_6_0.jpg",NA,NA,NA,NA,NA,NA,NA,NA,NA,NA,NA,NA,NA,NA,NA,NA,"[]","large",2,"sch",6,46,3,4,1,2,4,1,"","","man","","caucasian","","No","",""
"47","6286588610e848e43598e9d0","svTrial","survey",56,805653,"0.0-2.0-54.0","65553732575bb29198a888d7","65565250e23e48fd6f95c2f8",2,"58530","Okinawa_middle_sch_2_1.jpg",NA,NA,NA,NA,NA,NA,NA,NA,NA,NA,NA,NA,NA,NA,NA,NA,"[]","small",1,"sch",2,47,4,2,1,1,3,1,"","","man","","caucasian","","No","",""
"48","6286588610e848e43598e9d0","svTrial","survey",57,819445,"0.0-2.0-55.0","65553732575bb29198a888d7","65565250e23e48fd6f95c2f8",2,"13777","Tokyo_small_sch_3_0.jpg",NA,NA,NA,NA,NA,NA,NA,NA,NA,NA,NA,NA,NA,NA,NA,NA,"[]","small",1,"sch",3,48,3,2,1,4,2,1,"","","man","","caucasian","","No","",""
