"","subject_id","task","trial_type","trial_index","time_elapsed","internal_node_id","study_id","session_id","group","rt","stimulus","width","height","webaudio","browser","browser_version","mobile","os","fullscreen","vsync_rate","webcam","microphone","success","timeout","failed_images","failed_audio","failed_video","accuracy","size","culture","loct","number","document.id","ambiguous","objects","invisible","chaos","complex","passedChecks","zipcode","age","sex","gender","gender-self-describe","ethnicity","ethnicity-self-describe","outsideUS","outsideUS_years","surveyComments"
"1","6287922ffac7245513199fe4","svTrial","survey",8,229175,"0.0-2.0-6.0","65553732575bb29198a888d7","65565c5b33524abafc3acbe5",5,"30896","Niigata_middle_pos_6_0.jpg",NA,NA,NA,NA,NA,NA,NA,NA,NA,NA,NA,NA,NA,NA,NA,NA,"[]","small",2,"sch",6,1,2,3,3,1,3,1,"32832","31","male","man","","african","","No","",""
"2","6287922ffac7245513199fe4","svTrial","survey",9,257854,"0.0-2.0-7.0","65553732575bb29198a888d7","65565c5b33524abafc3acbe5",5,"28663","Kanagawa_middle_sch_5_0.jpg",NA,NA,NA,NA,NA,NA,NA,NA,NA,NA,NA,NA,NA,NA,NA,NA,"[]","large",1,"sch",5,2,3,1,3,2,3,1,"32832","31","male","man","","african","","No","",""
"3","6287922ffac7245513199fe4","svTrial","survey",10,276228,"0.0-2.0-8.0","65553732575bb29198a888d7","65565c5b33524abafc3acbe5",5,"18359","Niigata_large_pos_1_2.jpg",NA,NA,NA,NA,NA,NA,NA,NA,NA,NA,NA,NA,NA,NA,NA,NA,"[]","middle",2,"pos",1,3,4,2,4,3,2,1,"32832","31","male","man","","african","","No","",""
"4","6287922ffac7245513199fe4","svTrial","survey",11,302034,"0.0-2.0-9.0","65553732575bb29198a888d7","65565c5b33524abafc3acbe5",5,"25789","Kanagawa_large_sch_5_0.jpg",NA,NA,NA,NA,NA,NA,NA,NA,NA,NA,NA,NA,NA,NA,NA,NA,"[]","middle",1,"pos",5,4,4,3,5,4,4,1,"32832","31","male","man","","african","","No","",""
"5","6287922ffac7245513199fe4","svTrial","survey",12,325443,"0.0-2.0-10.0","65553732575bb29198a888d7","65565c5b33524abafc3acbe5",5,"23394","Tokyo_large_sch_7_2.jpg",NA,NA,NA,NA,NA,NA,NA,NA,NA,NA,NA,NA,NA,NA,NA,NA,"[]","large",1,"pos",7,5,1,1,2,1,1,1,"32832","31","male","man","","african","","No","",""
"6","6287922ffac7245513199fe4","svTrial","survey",13,349826,"0.0-2.0-11.0","65553732575bb29198a888d7","65565c5b33524abafc3acbe5",5,"24369","Hokkaido_large_sch_2_3.jpg",NA,NA,NA,NA,NA,NA,NA,NA,NA,NA,NA,NA,NA,NA,NA,NA,"[]","small",1,"sch",2,6,3,2,3,2,2,1,"32832","31","male","man","","african","","No","",""
"7","6287922ffac7245513199fe4","svTrial","survey",14,378483,"0.0-2.0-12.0","65553732575bb29198a888d7","65565c5b33524abafc3acbe5",5,"28644","Hokkaido_large_pos_5_2.jpg",NA,NA,NA,NA,NA,NA,NA,NA,NA,NA,NA,NA,NA,NA,NA,NA,"[]","small",1,"pos",5,7,3,3,3,2,2,1,"32832","31","male","man","","african","","No","",""
"8","6287922ffac7245513199fe4","svTrial","survey",15,397880,"0.0-2.0-13.0","65553732575bb29198a888d7","65565c5b33524abafc3acbe5",5,"19382","Ishikawa_large_pos_8_0.jpg",NA,NA,NA,NA,NA,NA,NA,NA,NA,NA,NA,NA,NA,NA,NA,NA,"[]","large",2,"pos",8,8,2,1,2,1,1,1,"32832","31","male","man","","african","","No","",""
"9","6287922ffac7245513199fe4","svTrial","survey",16,413870,"0.0-2.0-14.0","65553732575bb29198a888d7","65565c5b33524abafc3acbe5",5,"15976","Ishikawa_small_sch_1_0.jpg",NA,NA,NA,NA,NA,NA,NA,NA,NA,NA,NA,NA,NA,NA,NA,NA,"[]","large",2,"sch",1,9,1,1,1,1,1,1,"32832","31","male","man","","african","","No","",""
"10","6287922ffac7245513199fe4","svTrial","survey",17,434570,"0.0-2.0-15.0","65553732575bb29198a888d7","65565c5b33524abafc3acbe5",5,"20685","Tokyo_small_pos_2_1.jpg",NA,NA,NA,NA,NA,NA,NA,NA,NA,NA,NA,NA,NA,NA,NA,NA,"[]","small",1,"sch",2,10,3,3,4,2,3,1,"32832","31","male","man","","african","","No","",""
"11","6287922ffac7245513199fe4","svTrial","survey",18,451800,"0.0-2.0-16.0","65553732575bb29198a888d7","65565c5b33524abafc3acbe5",5,"17216","Niigata_small_pos_3_3.jpg",NA,NA,NA,NA,NA,NA,NA,NA,NA,NA,NA,NA,NA,NA,NA,NA,"[]","small",2,"pos",3,11,2,1,4,1,3,1,"32832","31","male","man","","african","","No","",""
"12","6287922ffac7245513199fe4","svTrial","survey",19,468886,"0.0-2.0-17.0","65553732575bb29198a888d7","65565c5b33524abafc3acbe5",5,"17073","Hokkaido_small_sch_2_0.jpg",NA,NA,NA,NA,NA,NA,NA,NA,NA,NA,NA,NA,NA,NA,NA,NA,"[]","small",1,"pos",2,12,3,2,4,1,3,1,"32832","31","male","man","","african","","No","",""
"13","6287922ffac7245513199fe4","svTrial","survey",20,494127,"0.0-2.0-18.0","65553732575bb29198a888d7","65565c5b33524abafc3acbe5",5,"25228","Tokyo_large_sch_8_3.jpg",NA,NA,NA,NA,NA,NA,NA,NA,NA,NA,NA,NA,NA,NA,NA,NA,"[]","large",1,"sch",8,13,4,2,4,3,3,1,"32832","31","male","man","","african","","No","",""
"14","6287922ffac7245513199fe4","svTrial","survey",21,510881,"0.0-2.0-19.0","65553732575bb29198a888d7","65565c5b33524abafc3acbe5",5,"16740","Akita_large_pos_12_3.jpg",NA,NA,NA,NA,NA,NA,NA,NA,NA,NA,NA,NA,NA,NA,NA,NA,"[]","small",2,"sch",12,14,3,3,4,2,2,1,"32832","31","male","man","","african","","No","",""
"15","6287922ffac7245513199fe4","svTrial","survey",22,528581,"0.0-2.0-20.0","65553732575bb29198a888d7","65565c5b33524abafc3acbe5",5,"17686","Hokkaido_small_sch_3_2.jpg",NA,NA,NA,NA,NA,NA,NA,NA,NA,NA,NA,NA,NA,NA,NA,NA,"[]","small",1,"sch",3,15,3,1,4,2,2,1,"32832","31","male","man","","african","","No","",""
"16","6287922ffac7245513199fe4","svTrial","survey",23,562114,"0.0-2.0-21.0","65553732575bb29198a888d7","65565c5b33524abafc3acbe5",5,"33518","Ishikawa_large_pos_10_1.jpg",NA,NA,NA,NA,NA,NA,NA,NA,NA,NA,NA,NA,NA,NA,NA,NA,"[]","small",2,"pos",10,16,2,2,3,2,2,1,"32832","31","male","man","","african","","No","",""
"17","6287922ffac7245513199fe4","svTrial","survey",24,591617,"0.0-2.0-22.0","65553732575bb29198a888d7","65565c5b33524abafc3acbe5",5,"29490","Okinawa_middle_sch_3_3.jpg",NA,NA,NA,NA,NA,NA,NA,NA,NA,NA,NA,NA,NA,NA,NA,NA,"[]","middle",1,"pos",3,17,2,2,2,4,4,1,"32832","31","male","man","","african","","No","",""
"18","6287922ffac7245513199fe4","svTrial","survey",25,623064,"0.0-2.0-23.0","65553732575bb29198a888d7","65565c5b33524abafc3acbe5",5,"31431","Tokyo_large_pos_7_3.jpg",NA,NA,NA,NA,NA,NA,NA,NA,NA,NA,NA,NA,NA,NA,NA,NA,"[]","large",1,"pos",7,18,4,2,4,4,NA,1,"32832","31","male","man","","african","","No","",""
"19","6287922ffac7245513199fe4","svTrial","survey",26,703472,"0.0-2.0-24.0","65553732575bb29198a888d7","65565c5b33524abafc3acbe5",5,"80395","Kanagawa_small_sch_3_2.jpg",NA,NA,NA,NA,NA,NA,NA,NA,NA,NA,NA,NA,NA,NA,NA,NA,"[]","small",1,"pos",3,19,2,4,4,3,2,1,"32832","31","male","man","","african","","No","",""
"20","6287922ffac7245513199fe4","svTrial","survey",27,710362,"0.0-2.0-25.0","65553732575bb29198a888d7","65565c5b33524abafc3acbe5",5,"6877","Toyama_small_sch_1_0.jpg",NA,NA,NA,NA,NA,NA,NA,NA,NA,NA,NA,NA,NA,NA,NA,NA,"[]","small",2,"sch",1,20,1,1,1,1,1,1,"32832","31","male","man","","african","","No","",""
"21","6287922ffac7245513199fe4","svTrial","survey",28,766614,"0.0-2.0-26.0","65553732575bb29198a888d7","65565c5b33524abafc3acbe5",5,"56237","Toyama_large_pos_9_3.jpg",NA,NA,NA,NA,NA,NA,NA,NA,NA,NA,NA,NA,NA,NA,NA,NA,"[]","middle",2,"sch",9,21,2,2,2,3,4,1,"32832","31","male","man","","african","","No","",""
"22","6287922ffac7245513199fe4","svTrial","survey",29,826888,"0.0-2.0-27.0","65553732575bb29198a888d7","65565c5b33524abafc3acbe5",5,"60260","Ishikawa_small_sch_4_0.jpg",NA,NA,NA,NA,NA,NA,NA,NA,NA,NA,NA,NA,NA,NA,NA,NA,"[]","small",2,"sch",4,22,2,3,4,3,3,1,"32832","31","male","man","","african","","No","",""
"23","6287922ffac7245513199fe4","svTrial","survey",30,904267,"0.0-2.0-28.0","65553732575bb29198a888d7","65565c5b33524abafc3acbe5",5,"77363","Akita_large_pos_1_0.jpg",NA,NA,NA,NA,NA,NA,NA,NA,NA,NA,NA,NA,NA,NA,NA,NA,"[]","large",2,"pos",1,23,3,1,2,4,3,1,"32832","31","male","man","","african","","No","",""
"24","6287922ffac7245513199fe4","svTrial","survey",31,944509,"0.0-2.0-29.0","65553732575bb29198a888d7","65565c5b33524abafc3acbe5",5,"40229","Kanagawa_large_pos_3_2.jpg",NA,NA,NA,NA,NA,NA,NA,NA,NA,NA,NA,NA,NA,NA,NA,NA,"[]","small",1,"sch",3,24,3,2,3,2,3,1,"32832","31","male","man","","african","","No","",""
"25","6287922ffac7245513199fe4","svTrial","survey",33,989191,"0.0-2.0-31.0","65553732575bb29198a888d7","65565c5b33524abafc3acbe5",5,"28888","Akita_large_sch_8_3.jpg",NA,NA,NA,NA,NA,NA,NA,NA,NA,NA,NA,NA,NA,NA,NA,NA,"[]","middle",2,"pos",8,25,3,1,4,1,2,1,"32832","31","male","man","","african","","No","",""
"26","6287922ffac7245513199fe4","svTrial","survey",34,1039949,"0.0-2.0-32.0","65553732575bb29198a888d7","65565c5b33524abafc3acbe5",5,"50745","Hokkaido_small_pos_3_3.jpg",NA,NA,NA,NA,NA,NA,NA,NA,NA,NA,NA,NA,NA,NA,NA,NA,"[]","middle",1,"sch",3,26,4,2,4,3,3,1,"32832","31","male","man","","african","","No","",""
"27","6287922ffac7245513199fe4","svTrial","survey",35,1348370,"0.0-2.0-33.0","65553732575bb29198a888d7","65565c5b33524abafc3acbe5",5,"308403","Ishikawa_large_sch_4_2.jpg",NA,NA,NA,NA,NA,NA,NA,NA,NA,NA,NA,NA,NA,NA,NA,NA,"[]","middle",2,"sch",4,27,3,1,2,2,2,1,"32832","31","male","man","","african","","No","",""
"28","6287922ffac7245513199fe4","svTrial","survey",36,1388176,"0.0-2.0-34.0","65553732575bb29198a888d7","65565c5b33524abafc3acbe5",5,"39777","Akita_large_pos_11_1.jpg",NA,NA,NA,NA,NA,NA,NA,NA,NA,NA,NA,NA,NA,NA,NA,NA,"[]","small",2,"sch",11,28,5,1,4,3,4,1,"32832","31","male","man","","african","","No","",""
"29","6287922ffac7245513199fe4","svTrial","survey",37,1673256,"0.0-2.0-35.0","65553732575bb29198a888d7","65565c5b33524abafc3acbe5",5,"177731","Akita_large_sch_5_2.jpg",NA,NA,NA,NA,NA,NA,NA,NA,NA,NA,NA,NA,NA,NA,NA,NA,"[]","middle",2,"pos",5,29,4,3,3,3,3,1,"32832","31","male","man","","african","","No","",""
"30","6287922ffac7245513199fe4","svTrial","survey",38,1693762,"0.0-2.0-36.0","65553732575bb29198a888d7","65565c5b33524abafc3acbe5",5,"20492","Akita_middle_sch_1_1.jpg",NA,NA,NA,NA,NA,NA,NA,NA,NA,NA,NA,NA,NA,NA,NA,NA,"[]","middle",2,"pos",1,30,4,2,4,3,4,1,"32832","31","male","man","","african","","No","",""
"31","6287922ffac7245513199fe4","svTrial","survey",39,1710149,"0.0-2.0-37.0","65553732575bb29198a888d7","65565c5b33524abafc3acbe5",5,"16371","Niigata_large_pos_3_0.jpg",NA,NA,NA,NA,NA,NA,NA,NA,NA,NA,NA,NA,NA,NA,NA,NA,"[]","large",2,"pos",3,31,3,1,3,2,2,1,"32832","31","male","man","","african","","No","",""
"32","6287922ffac7245513199fe4","svTrial","survey",40,1730353,"0.0-2.0-38.0","65553732575bb29198a888d7","65565c5b33524abafc3acbe5",5,"20187","Tokyo_middle_sch_6_1.jpg",NA,NA,NA,NA,NA,NA,NA,NA,NA,NA,NA,NA,NA,NA,NA,NA,"[]","small",1,"sch",6,32,4,2,5,3,3,1,"32832","31","male","man","","african","","No","",""
"33","6287922ffac7245513199fe4","svTrial","survey",41,2047335,"0.0-2.0-39.0","65553732575bb29198a888d7","65565c5b33524abafc3acbe5",5,"316966","Toyama_middle_sch_1_0.jpg",NA,NA,NA,NA,NA,NA,NA,NA,NA,NA,NA,NA,NA,NA,NA,NA,"[]","large",2,"pos",1,33,3,3,1,4,2,1,"32832","31","male","man","","african","","No","",""
"34","6287922ffac7245513199fe4","svTrial","survey",42,2047860,"0.0-2.0-40.0","65553732575bb29198a888d7","65565c5b33524abafc3acbe5",5,"510","Toyama_large_pos_8_3.jpg",NA,NA,NA,NA,NA,NA,NA,NA,NA,NA,NA,NA,NA,NA,NA,NA,"[]","large",2,"pos",8,34,NA,NA,NA,NA,NA,1,"32832","31","male","man","","african","","No","",""
"35","6287922ffac7245513199fe4","svTrial","survey",43,2058033,"0.0-2.0-41.0","65553732575bb29198a888d7","65565c5b33524abafc3acbe5",5,"10162","Tokyo_large_pos_2_0.jpg",NA,NA,NA,NA,NA,NA,NA,NA,NA,NA,NA,NA,NA,NA,NA,NA,"[]","small",1,"sch",2,35,2,3,2,3,4,1,"32832","31","male","man","","african","","No","",""
"36","6287922ffac7245513199fe4","svTrial","survey",44,2067986,"0.0-2.0-42.0","65553732575bb29198a888d7","65565c5b33524abafc3acbe5",5,"9940","Akita_small_pos_2_1.jpg",NA,NA,NA,NA,NA,NA,NA,NA,NA,NA,NA,NA,NA,NA,NA,NA,"[]","large",2,"sch",2,36,4,3,2,3,5,1,"32832","31","male","man","","african","","No","",""
"37","6287922ffac7245513199fe4","svTrial","survey",45,2125214,"0.0-2.0-43.0","65553732575bb29198a888d7","65565c5b33524abafc3acbe5",5,"57214","Okinawa_large_sch_4_3.jpg",NA,NA,NA,NA,NA,NA,NA,NA,NA,NA,NA,NA,NA,NA,NA,NA,"[]","middle",1,"pos",4,37,5,3,5,4,3,1,"32832","31","male","man","","african","","No","",""
"38","6287922ffac7245513199fe4","svTrial","survey",46,2140464,"0.0-2.0-44.0","65553732575bb29198a888d7","65565c5b33524abafc3acbe5",5,"15234","Hokkaido_small_pos_1_3.jpg",NA,NA,NA,NA,NA,NA,NA,NA,NA,NA,NA,NA,NA,NA,NA,NA,"[]","small",1,"pos",1,38,2,2,3,3,2,1,"32832","31","male","man","","african","","No","",""
"39","6287922ffac7245513199fe4","svTrial","survey",48,2161588,"0.0-2.0-46.0","65553732575bb29198a888d7","65565c5b33524abafc3acbe5",5,"11083","Kanagawa_small_sch_1_2.jpg",NA,NA,NA,NA,NA,NA,NA,NA,NA,NA,NA,NA,NA,NA,NA,NA,"[]","large",1,"sch",1,39,NA,NA,NA,NA,NA,1,"32832","31","male","man","","african","","No","",""
"40","6287922ffac7245513199fe4","svTrial","survey",49,2178311,"0.0-2.0-47.0","65553732575bb29198a888d7","65565c5b33524abafc3acbe5",5,"16709","Tokyo_middle_pos_3_3.jpg",NA,NA,NA,NA,NA,NA,NA,NA,NA,NA,NA,NA,NA,NA,NA,NA,"[]","middle",1,"pos",3,40,4,3,4,4,3,1,"32832","31","male","man","","african","","No","",""
"41","6287922ffac7245513199fe4","svTrial","survey",50,2189666,"0.0-2.0-48.0","65553732575bb29198a888d7","65565c5b33524abafc3acbe5",5,"11340","Kanagawa_middle_sch_8_0.jpg",NA,NA,NA,NA,NA,NA,NA,NA,NA,NA,NA,NA,NA,NA,NA,NA,"[]","small",1,"sch",8,41,3,1,3,2,3,1,"32832","31","male","man","","african","","No","",""
"42","6287922ffac7245513199fe4","svTrial","survey",51,2294785,"0.0-2.0-49.0","65553732575bb29198a888d7","65565c5b33524abafc3acbe5",5,"105106","Akita_large_sch_4_3.jpg",NA,NA,NA,NA,NA,NA,NA,NA,NA,NA,NA,NA,NA,NA,NA,NA,"[]","small",2,"pos",4,42,3,2,3,3,3,1,"32832","31","male","man","","african","","No","",""
"43","6287922ffac7245513199fe4","svTrial","survey",52,2364818,"0.0-2.0-50.0","65553732575bb29198a888d7","65565c5b33524abafc3acbe5",5,"70019","Kanagawa_large_sch_8_1.jpg",NA,NA,NA,NA,NA,NA,NA,NA,NA,NA,NA,NA,NA,NA,NA,NA,"[]","small",1,"pos",8,43,4,3,4,4,3,1,"32832","31","male","man","","african","","No","",""
"44","6287922ffac7245513199fe4","svTrial","survey",53,2372577,"0.0-2.0-51.0","65553732575bb29198a888d7","65565c5b33524abafc3acbe5",5,"7744","Ishikawa_middle_pos_7_1.jpg",NA,NA,NA,NA,NA,NA,NA,NA,NA,NA,NA,NA,NA,NA,NA,NA,"[]","small",2,"sch",7,44,4,1,4,4,3,1,"32832","31","male","man","","african","","No","",""
"45","6287922ffac7245513199fe4","svTrial","survey",54,2378691,"0.0-2.0-52.0","65553732575bb29198a888d7","65565c5b33524abafc3acbe5",5,"6099","Toyama_large_sch_9_0.jpg",NA,NA,NA,NA,NA,NA,NA,NA,NA,NA,NA,NA,NA,NA,NA,NA,"[]","middle",2,"sch",9,45,4,4,2,4,3,1,"32832","31","male","man","","african","","No","",""
"46","6287922ffac7245513199fe4","svTrial","survey",55,2449239,"0.0-2.0-53.0","65553732575bb29198a888d7","65565c5b33524abafc3acbe5",5,"70533","Toyama_large_pos_4_2.jpg",NA,NA,NA,NA,NA,NA,NA,NA,NA,NA,NA,NA,NA,NA,NA,NA,"[]","small",2,"sch",4,46,4,2,4,3,4,1,"32832","31","male","man","","african","","No","",""
"47","6287922ffac7245513199fe4","svTrial","survey",56,2537657,"0.0-2.0-54.0","65553732575bb29198a888d7","65565c5b33524abafc3acbe5",5,"88403","Hokkaido_middle_pos_4_2.jpg",NA,NA,NA,NA,NA,NA,NA,NA,NA,NA,NA,NA,NA,NA,NA,NA,"[]","middle",1,"sch",4,47,2,1,2,2,3,1,"32832","31","male","man","","african","","No","",""
"48","6287922ffac7245513199fe4","svTrial","survey",57,2548900,"0.0-2.0-55.0","65553732575bb29198a888d7","65565c5b33524abafc3acbe5",5,"11228","Kanagawa_middle_pos_4_3.jpg",NA,NA,NA,NA,NA,NA,NA,NA,NA,NA,NA,NA,NA,NA,NA,NA,"[]","small",1,"sch",4,48,2,1,2,3,NA,1,"32832","31","male","man","","african","","No","",""
