"","subject_id","task","trial_type","trial_index","time_elapsed","internal_node_id","study_id","session_id","group","rt","stimulus","width","height","webaudio","browser","browser_version","mobile","os","fullscreen","vsync_rate","webcam","microphone","success","timeout","failed_images","failed_audio","failed_video","accuracy","size","culture","loct","number","document.id","ambiguous","objects","invisible","chaos","complex","passedChecks","zipcode","age","sex","gender","gender-self-describe","ethnicity","ethnicity-self-describe","outsideUS","outsideUS_years","surveyComments"
"1","6289862b737e6a4af1a6eb78","svTrial","survey",8,147962,"0.0-2.0-6.0","65553732575bb29198a888d7","6556576dcccea3e33014d499",7,"61914","Tokyo_middle_sch_1_1.jpg",NA,NA,NA,NA,NA,NA,NA,NA,NA,NA,NA,NA,NA,NA,NA,NA,"[]","large",1,"sch",1,1,3,4,2,3,1,1,"74820","24","not-to-say","man","","caucasian","","No","","Interesting!"
"2","6289862b737e6a4af1a6eb78","svTrial","survey",9,195365,"0.0-2.0-7.0","65553732575bb29198a888d7","6556576dcccea3e33014d499",7,"47378","Niigata_large_sch_12_0.jpg",NA,NA,NA,NA,NA,NA,NA,NA,NA,NA,NA,NA,NA,NA,NA,NA,"[]","middle",2,"sch",12,2,2,4,3,3,1,1,"74820","24","not-to-say","man","","caucasian","","No","","Interesting!"
"3","6289862b737e6a4af1a6eb78","svTrial","survey",10,247497,"0.0-2.0-8.0","65553732575bb29198a888d7","6556576dcccea3e33014d499",7,"52111","Akita_middle_pos_4_3.jpg",NA,NA,NA,NA,NA,NA,NA,NA,NA,NA,NA,NA,NA,NA,NA,NA,"[]","large",2,"pos",4,3,1,2,1,4,1,1,"74820","24","not-to-say","man","","caucasian","","No","","Interesting!"
"4","6289862b737e6a4af1a6eb78","svTrial","survey",11,287967,"0.0-2.0-9.0","65553732575bb29198a888d7","6556576dcccea3e33014d499",7,"40446","Akita_small_pos_3_0.jpg",NA,NA,NA,NA,NA,NA,NA,NA,NA,NA,NA,NA,NA,NA,NA,NA,"[]","small",2,"pos",3,4,2,4,2,3,1,1,"74820","24","not-to-say","man","","caucasian","","No","","Interesting!"
"5","6289862b737e6a4af1a6eb78","svTrial","survey",12,319290,"0.0-2.0-10.0","65553732575bb29198a888d7","6556576dcccea3e33014d499",7,"31304","Niigata_small_pos_4_2.jpg",NA,NA,NA,NA,NA,NA,NA,NA,NA,NA,NA,NA,NA,NA,NA,NA,"[]","middle",2,"sch",4,5,2,2,1,4,1,1,"74820","24","not-to-say","man","","caucasian","","No","","Interesting!"
"6","6289862b737e6a4af1a6eb78","svTrial","survey",13,392410,"0.0-2.0-11.0","65553732575bb29198a888d7","6556576dcccea3e33014d499",7,"73096","Tokyo_large_sch_3_0.jpg",NA,NA,NA,NA,NA,NA,NA,NA,NA,NA,NA,NA,NA,NA,NA,NA,"[]","large",1,"sch",3,6,5,1,5,3,1,1,"74820","24","not-to-say","man","","caucasian","","No","","Interesting!"
"7","6289862b737e6a4af1a6eb78","svTrial","survey",14,420710,"0.0-2.0-12.0","65553732575bb29198a888d7","6556576dcccea3e33014d499",7,"28276","Ishikawa_middle_sch_3_1.jpg",NA,NA,NA,NA,NA,NA,NA,NA,NA,NA,NA,NA,NA,NA,NA,NA,"[]","small",2,"sch",3,7,1,1,1,1,1,1,"74820","24","not-to-say","man","","caucasian","","No","","Interesting!"
"8","6289862b737e6a4af1a6eb78","svTrial","survey",15,442127,"0.0-2.0-13.0","65553732575bb29198a888d7","6556576dcccea3e33014d499",7,"21394","Okinawa_middle_pos_5_2.jpg",NA,NA,NA,NA,NA,NA,NA,NA,NA,NA,NA,NA,NA,NA,NA,NA,"[]","large",1,"sch",5,8,3,3,2,3,1,1,"74820","24","not-to-say","man","","caucasian","","No","","Interesting!"
"9","6289862b737e6a4af1a6eb78","svTrial","survey",16,483695,"0.0-2.0-14.0","65553732575bb29198a888d7","6556576dcccea3e33014d499",7,"41548","Hokkaido_large_pos_8_0.jpg",NA,NA,NA,NA,NA,NA,NA,NA,NA,NA,NA,NA,NA,NA,NA,NA,"[]","small",1,"sch",8,9,5,1,5,1,1,1,"74820","24","not-to-say","man","","caucasian","","No","","Interesting!"
"10","6289862b737e6a4af1a6eb78","svTrial","survey",17,516824,"0.0-2.0-15.0","65553732575bb29198a888d7","6556576dcccea3e33014d499",7,"33107","Okinawa_small_sch_3_1.jpg",NA,NA,NA,NA,NA,NA,NA,NA,NA,NA,NA,NA,NA,NA,NA,NA,"[]","large",1,"sch",3,10,1,1,1,2,1,1,"74820","24","not-to-say","man","","caucasian","","No","","Interesting!"
"11","6289862b737e6a4af1a6eb78","svTrial","survey",18,542540,"0.0-2.0-16.0","65553732575bb29198a888d7","6556576dcccea3e33014d499",7,"25698","Niigata_small_sch_2_0.jpg",NA,NA,NA,NA,NA,NA,NA,NA,NA,NA,NA,NA,NA,NA,NA,NA,"[]","small",2,"sch",2,11,1,1,1,1,1,1,"74820","24","not-to-say","man","","caucasian","","No","","Interesting!"
"12","6289862b737e6a4af1a6eb78","svTrial","survey",19,567043,"0.0-2.0-17.0","65553732575bb29198a888d7","6556576dcccea3e33014d499",7,"24484","Okinawa_middle_sch_6_0.jpg",NA,NA,NA,NA,NA,NA,NA,NA,NA,NA,NA,NA,NA,NA,NA,NA,"[]","small",1,"sch",6,12,3,3,3,3,2,1,"74820","24","not-to-say","man","","caucasian","","No","","Interesting!"
"13","6289862b737e6a4af1a6eb78","svTrial","survey",20,603442,"0.0-2.0-18.0","65553732575bb29198a888d7","6556576dcccea3e33014d499",7,"36378","Hokkaido_small_sch_1_3.jpg",NA,NA,NA,NA,NA,NA,NA,NA,NA,NA,NA,NA,NA,NA,NA,NA,"[]","small",1,"pos",1,13,2,2,4,3,1,1,"74820","24","not-to-say","man","","caucasian","","No","","Interesting!"
"14","6289862b737e6a4af1a6eb78","svTrial","survey",21,644037,"0.0-2.0-19.0","65553732575bb29198a888d7","6556576dcccea3e33014d499",7,"40573","Hokkaido_middle_sch_8_1.jpg",NA,NA,NA,NA,NA,NA,NA,NA,NA,NA,NA,NA,NA,NA,NA,NA,"[]","large",1,"pos",8,14,3,4,4,2,2,1,"74820","24","not-to-say","man","","caucasian","","No","","Interesting!"
"15","6289862b737e6a4af1a6eb78","svTrial","survey",22,680417,"0.0-2.0-20.0","65553732575bb29198a888d7","6556576dcccea3e33014d499",7,"36361","Niigata_large_pos_7_2.jpg",NA,NA,NA,NA,NA,NA,NA,NA,NA,NA,NA,NA,NA,NA,NA,NA,"[]","middle",2,"sch",7,15,2,2,3,2,2,1,"74820","24","not-to-say","man","","caucasian","","No","","Interesting!"
"16","6289862b737e6a4af1a6eb78","svTrial","survey",23,697815,"0.0-2.0-21.0","65553732575bb29198a888d7","6556576dcccea3e33014d499",7,"17382","Ishikawa_middle_sch_7_2.jpg",NA,NA,NA,NA,NA,NA,NA,NA,NA,NA,NA,NA,NA,NA,NA,NA,"[]","large",2,"pos",7,16,1,2,1,2,1,1,"74820","24","not-to-say","man","","caucasian","","No","","Interesting!"
"17","6289862b737e6a4af1a6eb78","svTrial","survey",24,720192,"0.0-2.0-22.0","65553732575bb29198a888d7","6556576dcccea3e33014d499",7,"22354","Hokkaido_large_sch_7_1.jpg",NA,NA,NA,NA,NA,NA,NA,NA,NA,NA,NA,NA,NA,NA,NA,NA,"[]","large",1,"sch",7,17,4,3,2,2,1,1,"74820","24","not-to-say","man","","caucasian","","No","","Interesting!"
"18","6289862b737e6a4af1a6eb78","svTrial","survey",25,765016,"0.0-2.0-23.0","65553732575bb29198a888d7","6556576dcccea3e33014d499",7,"44805","Toyama_large_sch_7_0.jpg",NA,NA,NA,NA,NA,NA,NA,NA,NA,NA,NA,NA,NA,NA,NA,NA,"[]","small",2,"sch",7,18,3,3,3,3,1,1,"74820","24","not-to-say","man","","caucasian","","No","","Interesting!"
"19","6289862b737e6a4af1a6eb78","svTrial","survey",26,792125,"0.0-2.0-24.0","65553732575bb29198a888d7","6556576dcccea3e33014d499",7,"27093","Niigata_middle_sch_1_2.jpg",NA,NA,NA,NA,NA,NA,NA,NA,NA,NA,NA,NA,NA,NA,NA,NA,"[]","large",2,"sch",1,19,2,3,4,2,1,1,"74820","24","not-to-say","man","","caucasian","","No","","Interesting!"
"20","6289862b737e6a4af1a6eb78","svTrial","survey",27,824811,"0.0-2.0-25.0","65553732575bb29198a888d7","6556576dcccea3e33014d499",7,"32672","Ishikawa_small_pos_2_0.jpg",NA,NA,NA,NA,NA,NA,NA,NA,NA,NA,NA,NA,NA,NA,NA,NA,"[]","middle",2,"pos",2,20,3,4,3,3,1,1,"74820","24","not-to-say","man","","caucasian","","No","","Interesting!"
"21","6289862b737e6a4af1a6eb78","svTrial","survey",28,843927,"0.0-2.0-26.0","65553732575bb29198a888d7","6556576dcccea3e33014d499",7,"19098","Toyama_large_sch_3_2.jpg",NA,NA,NA,NA,NA,NA,NA,NA,NA,NA,NA,NA,NA,NA,NA,NA,"[]","large",2,"sch",3,21,4,4,3,3,1,1,"74820","24","not-to-say","man","","caucasian","","No","","Interesting!"
"22","6289862b737e6a4af1a6eb78","svTrial","survey",29,871107,"0.0-2.0-27.0","65553732575bb29198a888d7","6556576dcccea3e33014d499",7,"27159","Ishikawa_small_pos_1_0.jpg",NA,NA,NA,NA,NA,NA,NA,NA,NA,NA,NA,NA,NA,NA,NA,NA,"[]","small",2,"pos",1,22,2,3,2,3,1,1,"74820","24","not-to-say","man","","caucasian","","No","","Interesting!"
"23","6289862b737e6a4af1a6eb78","svTrial","survey",30,903062,"0.0-2.0-28.0","65553732575bb29198a888d7","6556576dcccea3e33014d499",7,"31933","Hokkaido_middle_pos_5_2.jpg",NA,NA,NA,NA,NA,NA,NA,NA,NA,NA,NA,NA,NA,NA,NA,NA,"[]","middle",1,"pos",5,23,3,3,2,2,1,1,"74820","24","not-to-say","man","","caucasian","","No","","Interesting!"
"24","6289862b737e6a4af1a6eb78","svTrial","survey",31,935445,"0.0-2.0-29.0","65553732575bb29198a888d7","6556576dcccea3e33014d499",7,"32362","Tokyo_middle_pos_4_1.jpg",NA,NA,NA,NA,NA,NA,NA,NA,NA,NA,NA,NA,NA,NA,NA,NA,"[]","small",1,"pos",4,24,4,3,3,3,1,1,"74820","24","not-to-say","man","","caucasian","","No","","Interesting!"
"25","6289862b737e6a4af1a6eb78","svTrial","survey",34,1023637,"0.0-2.0-32.0","65553732575bb29198a888d7","6556576dcccea3e33014d499",7,"64449","Akita_middle_pos_6_2.jpg",NA,NA,NA,NA,NA,NA,NA,NA,NA,NA,NA,NA,NA,NA,NA,NA,"[]","large",2,"sch",6,25,2,2,2,2,1,1,"74820","24","not-to-say","man","","caucasian","","No","","Interesting!"
"26","6289862b737e6a4af1a6eb78","svTrial","survey",35,1166355,"0.0-2.0-33.0","65553732575bb29198a888d7","6556576dcccea3e33014d499",7,"142697","Okinawa_large_pos_7_1.jpg",NA,NA,NA,NA,NA,NA,NA,NA,NA,NA,NA,NA,NA,NA,NA,NA,"[]","large",1,"sch",7,26,4,2,2,2,1,1,"74820","24","not-to-say","man","","caucasian","","No","","Interesting!"
"27","6289862b737e6a4af1a6eb78","svTrial","survey",36,1188054,"0.0-2.0-34.0","65553732575bb29198a888d7","6556576dcccea3e33014d499",7,"21678","Ishikawa_middle_pos_5_2.jpg",NA,NA,NA,NA,NA,NA,NA,NA,NA,NA,NA,NA,NA,NA,NA,NA,"[]","large",2,"sch",5,27,5,3,3,4,1,1,"74820","24","not-to-say","man","","caucasian","","No","","Interesting!"
"28","6289862b737e6a4af1a6eb78","svTrial","survey",37,1209180,"0.0-2.0-35.0","65553732575bb29198a888d7","6556576dcccea3e33014d499",7,"21089","Tokyo_large_pos_10_2.jpg",NA,NA,NA,NA,NA,NA,NA,NA,NA,NA,NA,NA,NA,NA,NA,NA,"[]","large",1,"sch",10,28,3,3,2,2,1,1,"74820","24","not-to-say","man","","caucasian","","No","","Interesting!"
"29","6289862b737e6a4af1a6eb78","svTrial","survey",38,1299223,"0.0-2.0-36.0","65553732575bb29198a888d7","6556576dcccea3e33014d499",7,"90023","Hokkaido_large_pos_6_0.jpg",NA,NA,NA,NA,NA,NA,NA,NA,NA,NA,NA,NA,NA,NA,NA,NA,"[]","middle",1,"pos",6,29,3,2,4,2,1,1,"74820","24","not-to-say","man","","caucasian","","No","","Interesting!"
"30","6289862b737e6a4af1a6eb78","svTrial","survey",39,1362929,"0.0-2.0-37.0","65553732575bb29198a888d7","6556576dcccea3e33014d499",7,"63690","Tokyo_large_pos_11_1.jpg",NA,NA,NA,NA,NA,NA,NA,NA,NA,NA,NA,NA,NA,NA,NA,NA,"[]","small",1,"sch",11,30,4,3,2,3,1,1,"74820","24","not-to-say","man","","caucasian","","No","","Interesting!"
"31","6289862b737e6a4af1a6eb78","svTrial","survey",40,1378458,"0.0-2.0-38.0","65553732575bb29198a888d7","6556576dcccea3e33014d499",7,"15506","Hokkaido_large_sch_9_0.jpg",NA,NA,NA,NA,NA,NA,NA,NA,NA,NA,NA,NA,NA,NA,NA,NA,"[]","large",1,"sch",9,31,2,2,1,2,1,1,"74820","24","not-to-say","man","","caucasian","","No","","Interesting!"
"32","6289862b737e6a4af1a6eb78","svTrial","survey",41,1397918,"0.0-2.0-39.0","65553732575bb29198a888d7","6556576dcccea3e33014d499",7,"19442","Okinawa_middle_sch_8_0.jpg",NA,NA,NA,NA,NA,NA,NA,NA,NA,NA,NA,NA,NA,NA,NA,NA,"[]","large",1,"sch",8,32,4,1,5,3,1,1,"74820","24","not-to-say","man","","caucasian","","No","","Interesting!"
"33","6289862b737e6a4af1a6eb78","svTrial","survey",42,1408882,"0.0-2.0-40.0","65553732575bb29198a888d7","6556576dcccea3e33014d499",7,"10945","Akita_middle_sch_3_2.jpg",NA,NA,NA,NA,NA,NA,NA,NA,NA,NA,NA,NA,NA,NA,NA,NA,"[]","large",2,"pos",3,33,1,1,1,1,1,1,"74820","24","not-to-say","man","","caucasian","","No","","Interesting!"
"34","6289862b737e6a4af1a6eb78","svTrial","survey",43,1434911,"0.0-2.0-41.0","65553732575bb29198a888d7","6556576dcccea3e33014d499",7,"26012","Niigata_middle_sch_3_1.jpg",NA,NA,NA,NA,NA,NA,NA,NA,NA,NA,NA,NA,NA,NA,NA,NA,"[]","middle",2,"pos",3,34,3,3,1,2,1,1,"74820","24","not-to-say","man","","caucasian","","No","","Interesting!"
"35","6289862b737e6a4af1a6eb78","svTrial","survey",44,1452369,"0.0-2.0-42.0","65553732575bb29198a888d7","6556576dcccea3e33014d499",7,"17437","Kanagawa_large_sch_1_3.jpg",NA,NA,NA,NA,NA,NA,NA,NA,NA,NA,NA,NA,NA,NA,NA,NA,"[]","middle",1,"sch",1,35,5,2,3,3,1,1,"74820","24","not-to-say","man","","caucasian","","No","","Interesting!"
"36","6289862b737e6a4af1a6eb78","svTrial","survey",45,1476336,"0.0-2.0-43.0","65553732575bb29198a888d7","6556576dcccea3e33014d499",7,"23950","Niigata_large_sch_6_0.jpg",NA,NA,NA,NA,NA,NA,NA,NA,NA,NA,NA,NA,NA,NA,NA,NA,"[]","small",2,"sch",6,36,2,1,4,1,2,1,"74820","24","not-to-say","man","","caucasian","","No","","Interesting!"
"37","6289862b737e6a4af1a6eb78","svTrial","survey",46,1493271,"0.0-2.0-44.0","65553732575bb29198a888d7","6556576dcccea3e33014d499",7,"16919","Akita_small_pos_1_1.jpg",NA,NA,NA,NA,NA,NA,NA,NA,NA,NA,NA,NA,NA,NA,NA,NA,"[]","middle",2,"pos",1,37,2,1,2,2,1,1,"74820","24","not-to-say","man","","caucasian","","No","","Interesting!"
"38","6289862b737e6a4af1a6eb78","svTrial","survey",47,1540806,"0.0-2.0-45.0","65553732575bb29198a888d7","6556576dcccea3e33014d499",7,"47514","Ishikawa_large_sch_7_2.jpg",NA,NA,NA,NA,NA,NA,NA,NA,NA,NA,NA,NA,NA,NA,NA,NA,"[]","large",2,"pos",7,38,3,3,2,2,1,1,"74820","24","not-to-say","man","","caucasian","","No","","Interesting!"
"39","6289862b737e6a4af1a6eb78","svTrial","survey",48,1555834,"0.0-2.0-46.0","65553732575bb29198a888d7","6556576dcccea3e33014d499",7,"15009","Kanagawa_middle_sch_4_3.jpg",NA,NA,NA,NA,NA,NA,NA,NA,NA,NA,NA,NA,NA,NA,NA,NA,"[]","middle",1,"sch",4,39,3,3,1,2,1,1,"74820","24","not-to-say","man","","caucasian","","No","","Interesting!"
"40","6289862b737e6a4af1a6eb78","svTrial","survey",49,1572530,"0.0-2.0-47.0","65553732575bb29198a888d7","6556576dcccea3e33014d499",7,"16681","Tokyo_large_sch_6_2.jpg",NA,NA,NA,NA,NA,NA,NA,NA,NA,NA,NA,NA,NA,NA,NA,NA,"[]","large",1,"sch",6,40,4,1,5,4,2,1,"74820","24","not-to-say","man","","caucasian","","No","","Interesting!"
"41","6289862b737e6a4af1a6eb78","svTrial","survey",50,1590241,"0.0-2.0-48.0","65553732575bb29198a888d7","6556576dcccea3e33014d499",7,"17690","Akita_middle_pos_8_1.jpg",NA,NA,NA,NA,NA,NA,NA,NA,NA,NA,NA,NA,NA,NA,NA,NA,"[]","small",2,"sch",8,41,1,2,1,1,1,1,"74820","24","not-to-say","man","","caucasian","","No","","Interesting!"
"42","6289862b737e6a4af1a6eb78","svTrial","survey",51,1609803,"0.0-2.0-49.0","65553732575bb29198a888d7","6556576dcccea3e33014d499",7,"19544","Tokyo_middle_sch_4_0.jpg",NA,NA,NA,NA,NA,NA,NA,NA,NA,NA,NA,NA,NA,NA,NA,NA,"[]","large",1,"sch",4,42,4,3,3,3,1,1,"74820","24","not-to-say","man","","caucasian","","No","","Interesting!"
"43","6289862b737e6a4af1a6eb78","svTrial","survey",52,1623267,"0.0-2.0-50.0","65553732575bb29198a888d7","6556576dcccea3e33014d499",7,"13449","Ishikawa_middle_sch_6_2.jpg",NA,NA,NA,NA,NA,NA,NA,NA,NA,NA,NA,NA,NA,NA,NA,NA,"[]","large",2,"sch",6,43,2,2,1,2,1,1,"74820","24","not-to-say","man","","caucasian","","No","","Interesting!"
"44","6289862b737e6a4af1a6eb78","svTrial","survey",53,1647298,"0.0-2.0-51.0","65553732575bb29198a888d7","6556576dcccea3e33014d499",7,"24010","Hokkaido_small_pos_4_3.jpg",NA,NA,NA,NA,NA,NA,NA,NA,NA,NA,NA,NA,NA,NA,NA,NA,"[]","small",1,"pos",4,44,1,1,1,1,2,1,"74820","24","not-to-say","man","","caucasian","","No","","Interesting!"
"45","6289862b737e6a4af1a6eb78","svTrial","survey",54,1668806,"0.0-2.0-52.0","65553732575bb29198a888d7","6556576dcccea3e33014d499",7,"21489","Toyama_middle_sch_2_0.jpg",NA,NA,NA,NA,NA,NA,NA,NA,NA,NA,NA,NA,NA,NA,NA,NA,"[]","large",2,"pos",2,45,2,1,2,2,1,1,"74820","24","not-to-say","man","","caucasian","","No","","Interesting!"
"46","6289862b737e6a4af1a6eb78","svTrial","survey",55,1682968,"0.0-2.0-53.0","65553732575bb29198a888d7","6556576dcccea3e33014d499",7,"14145","Kanagawa_large_pos_8_3.jpg",NA,NA,NA,NA,NA,NA,NA,NA,NA,NA,NA,NA,NA,NA,NA,NA,"[]","large",1,"pos",8,46,3,3,2,3,1,1,"74820","24","not-to-say","man","","caucasian","","No","","Interesting!"
"47","6289862b737e6a4af1a6eb78","svTrial","survey",56,1715710,"0.0-2.0-54.0","65553732575bb29198a888d7","6556576dcccea3e33014d499",7,"32721","Tokyo_large_sch_4_3.jpg",NA,NA,NA,NA,NA,NA,NA,NA,NA,NA,NA,NA,NA,NA,NA,NA,"[]","small",1,"pos",4,47,3,2,4,2,1,1,"74820","24","not-to-say","man","","caucasian","","No","","Interesting!"
"48","6289862b737e6a4af1a6eb78","svTrial","survey",57,1731857,"0.0-2.0-55.0","65553732575bb29198a888d7","6556576dcccea3e33014d499",7,"16129","Ishikawa_large_sch_8_0.jpg",NA,NA,NA,NA,NA,NA,NA,NA,NA,NA,NA,NA,NA,NA,NA,NA,"[]","large",2,"pos",8,48,4,3,3,3,2,1,"74820","24","not-to-say","man","","caucasian","","No","","Interesting!"
