"","subject_id","task","trial_type","trial_index","time_elapsed","internal_node_id","study_id","session_id","group","rt","stimulus","width","height","webaudio","browser","browser_version","mobile","os","fullscreen","vsync_rate","webcam","microphone","success","timeout","failed_images","failed_audio","failed_video","accuracy","size","culture","loct","number","document.id","ambiguous","objects","invisible","chaos","complex","passedChecks","zipcode","age","sex","gender","gender-self-describe","ethnicity","ethnicity-self-describe","outsideUS","outsideUS_years","surveyComments"
"1","62b068bbd9bcb120d812de65","svTrial","survey",8,45799,"0.0-2.0-6.0","65553732575bb29198a888d7","6556649fa661c94c45278f3d",3,"18847","Akita_large_sch_10_0.jpg",NA,NA,NA,NA,NA,NA,NA,NA,NA,NA,NA,NA,NA,NA,NA,NA,"[]","small",2,"pos",10,1,4,5,5,5,4,1,"41005","28","female","woman","","caucasian","","No","","No"
"2","62b068bbd9bcb120d812de65","svTrial","survey",9,62658,"0.0-2.0-7.0","65553732575bb29198a888d7","6556649fa661c94c45278f3d",3,"16796","Niigata_large_pos_4_2.jpg",NA,NA,NA,NA,NA,NA,NA,NA,NA,NA,NA,NA,NA,NA,NA,NA,"[]","middle",2,"pos",4,2,4,3,4,4,3,1,"41005","28","female","woman","","caucasian","","No","","No"
"3","62b068bbd9bcb120d812de65","svTrial","survey",10,96323,"0.0-2.0-8.0","65553732575bb29198a888d7","6556649fa661c94c45278f3d",3,"33616","Hokkaido_large_sch_11_1.jpg",NA,NA,NA,NA,NA,NA,NA,NA,NA,NA,NA,NA,NA,NA,NA,NA,"[]","large",1,"sch",11,3,3,2,2,2,2,1,"41005","28","female","woman","","caucasian","","No","","No"
"4","62b068bbd9bcb120d812de65","svTrial","survey",11,127561,"0.0-2.0-9.0","65553732575bb29198a888d7","6556649fa661c94c45278f3d",3,"31192","Toyama_large_sch_8_2.jpg",NA,NA,NA,NA,NA,NA,NA,NA,NA,NA,NA,NA,NA,NA,NA,NA,"[]","small",2,"pos",8,4,3,3,3,3,2,1,"41005","28","female","woman","","caucasian","","No","","No"
"5","62b068bbd9bcb120d812de65","svTrial","survey",12,147611,"0.0-2.0-10.0","65553732575bb29198a888d7","6556649fa661c94c45278f3d",3,"20006","Kanagawa_small_pos_1_0.jpg",NA,NA,NA,NA,NA,NA,NA,NA,NA,NA,NA,NA,NA,NA,NA,NA,"[]","middle",1,"sch",1,5,2,3,2,2,3,1,"41005","28","female","woman","","caucasian","","No","","No"
"6","62b068bbd9bcb120d812de65","svTrial","survey",13,182878,"0.0-2.0-11.0","65553732575bb29198a888d7","6556649fa661c94c45278f3d",3,"35218","Ishikawa_large_sch_6_3.jpg",NA,NA,NA,NA,NA,NA,NA,NA,NA,NA,NA,NA,NA,NA,NA,NA,"[]","small",2,"sch",6,6,3,2,2,2,3,1,"41005","28","female","woman","","caucasian","","No","","No"
"7","62b068bbd9bcb120d812de65","svTrial","survey",14,197701,"0.0-2.0-12.0","65553732575bb29198a888d7","6556649fa661c94c45278f3d",3,"14774","Hokkaido_large_sch_4_0.jpg",NA,NA,NA,NA,NA,NA,NA,NA,NA,NA,NA,NA,NA,NA,NA,NA,"[]","small",1,"sch",4,7,3,2,2,3,3,1,"41005","28","female","woman","","caucasian","","No","","No"
"8","62b068bbd9bcb120d812de65","svTrial","survey",15,237102,"0.0-2.0-13.0","65553732575bb29198a888d7","6556649fa661c94c45278f3d",3,"39360","Tokyo_middle_pos_5_2.jpg",NA,NA,NA,NA,NA,NA,NA,NA,NA,NA,NA,NA,NA,NA,NA,NA,"[]","small",1,"sch",5,8,3,5,5,4,4,1,"41005","28","female","woman","","caucasian","","No","","No"
"9","62b068bbd9bcb120d812de65","svTrial","survey",16,258960,"0.0-2.0-14.0","65553732575bb29198a888d7","6556649fa661c94c45278f3d",3,"21803","Akita_large_sch_1_2.jpg",NA,NA,NA,NA,NA,NA,NA,NA,NA,NA,NA,NA,NA,NA,NA,NA,"[]","small",2,"pos",1,9,3,3,4,3,3,1,"41005","28","female","woman","","caucasian","","No","","No"
"10","62b068bbd9bcb120d812de65","svTrial","survey",17,269772,"0.0-2.0-15.0","65553732575bb29198a888d7","6556649fa661c94c45278f3d",3,"10770","Hokkaido_middle_sch_2_1.jpg",NA,NA,NA,NA,NA,NA,NA,NA,NA,NA,NA,NA,NA,NA,NA,NA,"[]","small",1,"pos",2,10,3,3,4,3,4,1,"41005","28","female","woman","","caucasian","","No","","No"
"11","62b068bbd9bcb120d812de65","svTrial","survey",18,285149,"0.0-2.0-16.0","65553732575bb29198a888d7","6556649fa661c94c45278f3d",3,"15331","Ishikawa_middle_pos_6_3.jpg",NA,NA,NA,NA,NA,NA,NA,NA,NA,NA,NA,NA,NA,NA,NA,NA,"[]","middle",2,"pos",6,11,3,3,3,2,3,1,"41005","28","female","woman","","caucasian","","No","","No"
"12","62b068bbd9bcb120d812de65","svTrial","survey",19,382238,"0.0-2.0-17.0","65553732575bb29198a888d7","6556649fa661c94c45278f3d",3,"97053","Kanagawa_middle_sch_1_1.jpg",NA,NA,NA,NA,NA,NA,NA,NA,NA,NA,NA,NA,NA,NA,NA,NA,"[]","small",1,"sch",1,12,4,4,3,4,4,1,"41005","28","female","woman","","caucasian","","No","","No"
"13","62b068bbd9bcb120d812de65","svTrial","survey",20,433631,"0.0-2.0-18.0","65553732575bb29198a888d7","6556649fa661c94c45278f3d",3,"51297","Kanagawa_middle_pos_6_1.jpg",NA,NA,NA,NA,NA,NA,NA,NA,NA,NA,NA,NA,NA,NA,NA,NA,"[]","large",1,"sch",6,13,4,4,3,4,4,1,"41005","28","female","woman","","caucasian","","No","","No"
"14","62b068bbd9bcb120d812de65","svTrial","survey",21,574682,"0.0-2.0-19.0","65553732575bb29198a888d7","6556649fa661c94c45278f3d",3,"140989","Kanagawa_large_sch_11_0.jpg",NA,NA,NA,NA,NA,NA,NA,NA,NA,NA,NA,NA,NA,NA,NA,NA,"[]","large",1,"sch",11,14,3,3,4,3,3,1,"41005","28","female","woman","","caucasian","","No","","No"
"15","62b068bbd9bcb120d812de65","svTrial","survey",22,872593,"0.0-2.0-20.0","65553732575bb29198a888d7","6556649fa661c94c45278f3d",3,"297859","Niigata_small_pos_1_2.jpg",NA,NA,NA,NA,NA,NA,NA,NA,NA,NA,NA,NA,NA,NA,NA,NA,"[]","small",2,"pos",1,15,2,2,1,2,1,1,"41005","28","female","woman","","caucasian","","No","","No"
"16","62b068bbd9bcb120d812de65","svTrial","survey",23,1257231,"0.0-2.0-21.0","65553732575bb29198a888d7","6556649fa661c94c45278f3d",3,"384589","Hokkaido_middle_sch_6_0.jpg",NA,NA,NA,NA,NA,NA,NA,NA,NA,NA,NA,NA,NA,NA,NA,NA,"[]","small",1,"sch",6,16,2,2,3,2,2,1,"41005","28","female","woman","","caucasian","","No","","No"
"17","62b068bbd9bcb120d812de65","svTrial","survey",24,1453051,"0.0-2.0-22.0","65553732575bb29198a888d7","6556649fa661c94c45278f3d",3,"195755","Niigata_middle_pos_7_3.jpg",NA,NA,NA,NA,NA,NA,NA,NA,NA,NA,NA,NA,NA,NA,NA,NA,"[]","large",2,"sch",7,17,3,3,3,2,2,1,"41005","28","female","woman","","caucasian","","No","","No"
"18","62b068bbd9bcb120d812de65","svTrial","survey",25,1675262,"0.0-2.0-23.0","65553732575bb29198a888d7","6556649fa661c94c45278f3d",3,"222138","Okinawa_small_pos_3_2.jpg",NA,NA,NA,NA,NA,NA,NA,NA,NA,NA,NA,NA,NA,NA,NA,NA,"[]","large",1,"pos",3,18,3,4,2,3,4,1,"41005","28","female","woman","","caucasian","","No","","No"
"19","62b068bbd9bcb120d812de65","svTrial","survey",26,1898353,"0.0-2.0-24.0","65553732575bb29198a888d7","6556649fa661c94c45278f3d",3,"223036","Ishikawa_large_pos_5_3.jpg",NA,NA,NA,NA,NA,NA,NA,NA,NA,NA,NA,NA,NA,NA,NA,NA,"[]","large",2,"pos",5,19,2,3,2,2,2,1,"41005","28","female","woman","","caucasian","","No","","No"
"20","62b068bbd9bcb120d812de65","svTrial","survey",27,2008250,"0.0-2.0-25.0","65553732575bb29198a888d7","6556649fa661c94c45278f3d",3,"109852","Okinawa_large_sch_2_2.jpg",NA,NA,NA,NA,NA,NA,NA,NA,NA,NA,NA,NA,NA,NA,NA,NA,"[]","small",1,"sch",2,20,2,2,2,2,2,1,"41005","28","female","woman","","caucasian","","No","","No"
"21","62b068bbd9bcb120d812de65","svTrial","survey",28,2547568,"0.0-2.0-26.0","65553732575bb29198a888d7","6556649fa661c94c45278f3d",3,"539267","Tokyo_small_sch_4_0.jpg",NA,NA,NA,NA,NA,NA,NA,NA,NA,NA,NA,NA,NA,NA,NA,NA,"[]","large",1,"pos",4,21,3,2,3,2,3,1,"41005","28","female","woman","","caucasian","","No","","No"
"22","62b068bbd9bcb120d812de65","svTrial","survey",29,2651127,"0.0-2.0-27.0","65553732575bb29198a888d7","6556649fa661c94c45278f3d",3,"103421","Toyama_large_pos_12_0.jpg",NA,NA,NA,NA,NA,NA,NA,NA,NA,NA,NA,NA,NA,NA,NA,NA,"[]","large",2,"sch",12,22,2,3,3,3,2,1,"41005","28","female","woman","","caucasian","","No","","No"
"23","62b068bbd9bcb120d812de65","svTrial","survey",30,2708215,"0.0-2.0-28.0","65553732575bb29198a888d7","6556649fa661c94c45278f3d",3,"57037","Hokkaido_large_pos_4_3.jpg",NA,NA,NA,NA,NA,NA,NA,NA,NA,NA,NA,NA,NA,NA,NA,NA,"[]","middle",1,"sch",4,23,4,4,3,4,4,1,"41005","28","female","woman","","caucasian","","No","","No"
"24","62b068bbd9bcb120d812de65","svTrial","survey",31,2757880,"0.0-2.0-29.0","65553732575bb29198a888d7","6556649fa661c94c45278f3d",3,"49628","Okinawa_middle_pos_4_1.jpg",NA,NA,NA,NA,NA,NA,NA,NA,NA,NA,NA,NA,NA,NA,NA,NA,"[]","small",1,"sch",4,24,3,3,4,3,3,1,"41005","28","female","woman","","caucasian","","No","","No"
"25","62b068bbd9bcb120d812de65","svTrial","survey",33,3147876,"0.0-2.0-31.0","65553732575bb29198a888d7","6556649fa661c94c45278f3d",3,"374106","Toyama_middle_pos_1_0.jpg",NA,NA,NA,NA,NA,NA,NA,NA,NA,NA,NA,NA,NA,NA,NA,NA,"[]","middle",2,"pos",1,25,2,3,2,2,3,1,"41005","28","female","woman","","caucasian","","No","","No"
"26","62b068bbd9bcb120d812de65","svTrial","survey",34,3365478,"0.0-2.0-32.0","65553732575bb29198a888d7","6556649fa661c94c45278f3d",3,"217523","Hokkaido_large_sch_3_1.jpg",NA,NA,NA,NA,NA,NA,NA,NA,NA,NA,NA,NA,NA,NA,NA,NA,"[]","small",1,"sch",3,26,1,1,1,1,1,1,"41005","28","female","woman","","caucasian","","No","","No"
"27","62b068bbd9bcb120d812de65","svTrial","survey",35,3402139,"0.0-2.0-33.0","65553732575bb29198a888d7","6556649fa661c94c45278f3d",3,"36614","Okinawa_middle_pos_6_2.jpg",NA,NA,NA,NA,NA,NA,NA,NA,NA,NA,NA,NA,NA,NA,NA,NA,"[]","large",1,"pos",6,27,2,3,3,2,2,1,"41005","28","female","woman","","caucasian","","No","","No"
"28","62b068bbd9bcb120d812de65","svTrial","survey",37,3626543,"0.0-2.0-35.0","65553732575bb29198a888d7","6556649fa661c94c45278f3d",3,"219859","Kanagawa_large_pos_7_3.jpg",NA,NA,NA,NA,NA,NA,NA,NA,NA,NA,NA,NA,NA,NA,NA,NA,"[]","small",1,"pos",7,28,4,3,3,3,4,1,"41005","28","female","woman","","caucasian","","No","","No"
"29","62b068bbd9bcb120d812de65","svTrial","survey",38,3658550,"0.0-2.0-36.0","65553732575bb29198a888d7","6556649fa661c94c45278f3d",3,"31971","Tokyo_small_sch_1_0.jpg",NA,NA,NA,NA,NA,NA,NA,NA,NA,NA,NA,NA,NA,NA,NA,NA,"[]","small",1,"sch",1,29,3,2,3,3,3,1,"41005","28","female","woman","","caucasian","","No","","No"
"30","62b068bbd9bcb120d812de65","svTrial","survey",39,3671964,"0.0-2.0-37.0","65553732575bb29198a888d7","6556649fa661c94c45278f3d",3,"13369","Hokkaido_middle_sch_1_2.jpg",NA,NA,NA,NA,NA,NA,NA,NA,NA,NA,NA,NA,NA,NA,NA,NA,"[]","small",1,"sch",1,30,1,1,1,1,1,1,"41005","28","female","woman","","caucasian","","No","","No"
"31","62b068bbd9bcb120d812de65","svTrial","survey",40,3685178,"0.0-2.0-38.0","65553732575bb29198a888d7","6556649fa661c94c45278f3d",3,"13171","Ishikawa_large_pos_6_3.jpg",NA,NA,NA,NA,NA,NA,NA,NA,NA,NA,NA,NA,NA,NA,NA,NA,"[]","middle",2,"pos",6,31,4,4,4,3,4,1,"41005","28","female","woman","","caucasian","","No","","No"
"32","62b068bbd9bcb120d812de65","svTrial","survey",41,3698725,"0.0-2.0-39.0","65553732575bb29198a888d7","6556649fa661c94c45278f3d",3,"13501","Niigata_middle_pos_1_0.jpg",NA,NA,NA,NA,NA,NA,NA,NA,NA,NA,NA,NA,NA,NA,NA,NA,"[]","middle",2,"pos",1,32,3,3,2,3,3,1,"41005","28","female","woman","","caucasian","","No","","No"
"33","62b068bbd9bcb120d812de65","svTrial","survey",42,3746203,"0.0-2.0-40.0","65553732575bb29198a888d7","6556649fa661c94c45278f3d",3,"47433","Akita_middle_sch_6_3.jpg",NA,NA,NA,NA,NA,NA,NA,NA,NA,NA,NA,NA,NA,NA,NA,NA,"[]","small",2,"sch",6,33,3,2,3,3,3,1,"41005","28","female","woman","","caucasian","","No","","No"
"34","62b068bbd9bcb120d812de65","svTrial","survey",43,3757662,"0.0-2.0-41.0","65553732575bb29198a888d7","6556649fa661c94c45278f3d",3,"11414","Ishikawa_large_pos_3_1.jpg",NA,NA,NA,NA,NA,NA,NA,NA,NA,NA,NA,NA,NA,NA,NA,NA,"[]","large",2,"pos",3,34,1,2,2,1,1,1,"41005","28","female","woman","","caucasian","","No","","No"
"35","62b068bbd9bcb120d812de65","svTrial","survey",44,3769980,"0.0-2.0-42.0","65553732575bb29198a888d7","6556649fa661c94c45278f3d",3,"12267","Kanagawa_middle_sch_2_3.jpg",NA,NA,NA,NA,NA,NA,NA,NA,NA,NA,NA,NA,NA,NA,NA,NA,"[]","large",1,"sch",2,35,3,4,4,4,4,1,"41005","28","female","woman","","caucasian","","No","","No"
"36","62b068bbd9bcb120d812de65","svTrial","survey",45,3789020,"0.0-2.0-43.0","65553732575bb29198a888d7","6556649fa661c94c45278f3d",3,"18998","Toyama_small_sch_3_0.jpg",NA,NA,NA,NA,NA,NA,NA,NA,NA,NA,NA,NA,NA,NA,NA,NA,"[]","large",2,"pos",3,36,2,2,2,1,2,1,"41005","28","female","woman","","caucasian","","No","","No"
"37","62b068bbd9bcb120d812de65","svTrial","survey",46,3808301,"0.0-2.0-44.0","65553732575bb29198a888d7","6556649fa661c94c45278f3d",3,"19243","Okinawa_large_pos_1_3.jpg",NA,NA,NA,NA,NA,NA,NA,NA,NA,NA,NA,NA,NA,NA,NA,NA,"[]","large",1,"sch",1,37,3,3,3,2,3,1,"41005","28","female","woman","","caucasian","","No","","No"
"38","62b068bbd9bcb120d812de65","svTrial","survey",47,3819452,"0.0-2.0-45.0","65553732575bb29198a888d7","6556649fa661c94c45278f3d",3,"11110","Akita_large_sch_7_2.jpg",NA,NA,NA,NA,NA,NA,NA,NA,NA,NA,NA,NA,NA,NA,NA,NA,"[]","large",2,"sch",7,38,2,1,1,1,1,1,"41005","28","female","woman","","caucasian","","No","","No"
"39","62b068bbd9bcb120d812de65","svTrial","survey",48,3844856,"0.0-2.0-46.0","65553732575bb29198a888d7","6556649fa661c94c45278f3d",3,"25340","Akita_large_pos_9_0.jpg",NA,NA,NA,NA,NA,NA,NA,NA,NA,NA,NA,NA,NA,NA,NA,NA,"[]","small",2,"pos",9,39,3,3,2,3,3,1,"41005","28","female","woman","","caucasian","","No","","No"
"40","62b068bbd9bcb120d812de65","svTrial","survey",49,3862134,"0.0-2.0-47.0","65553732575bb29198a888d7","6556649fa661c94c45278f3d",3,"16580","Akita_small_sch_1_0.jpg",NA,NA,NA,NA,NA,NA,NA,NA,NA,NA,NA,NA,NA,NA,NA,NA,"[]","middle",2,"sch",1,40,2,3,3,3,3,1,"41005","28","female","woman","","caucasian","","No","","No"
"41","62b068bbd9bcb120d812de65","svTrial","survey",50,3865635,"0.0-2.0-48.0","65553732575bb29198a888d7","6556649fa661c94c45278f3d",3,"3338","Toyama_large_sch_4_3.jpg",NA,NA,NA,NA,NA,NA,NA,NA,NA,NA,NA,NA,NA,NA,NA,NA,"[]","small",2,"sch",4,41,NA,NA,NA,NA,NA,1,"41005","28","female","woman","","caucasian","","No","","No"
"42","62b068bbd9bcb120d812de65","svTrial","survey",51,3881015,"0.0-2.0-49.0","65553732575bb29198a888d7","6556649fa661c94c45278f3d",3,"15344","Kanagawa_large_pos_4_2.jpg",NA,NA,NA,NA,NA,NA,NA,NA,NA,NA,NA,NA,NA,NA,NA,NA,"[]","small",1,"pos",4,42,3,4,4,4,4,1,"41005","28","female","woman","","caucasian","","No","","No"
"43","62b068bbd9bcb120d812de65","svTrial","survey",52,3908426,"0.0-2.0-50.0","65553732575bb29198a888d7","6556649fa661c94c45278f3d",3,"27368","Kanagawa_middle_pos_2_1.jpg",NA,NA,NA,NA,NA,NA,NA,NA,NA,NA,NA,NA,NA,NA,NA,NA,"[]","small",1,"pos",2,43,3,2,5,3,3,1,"41005","28","female","woman","","caucasian","","No","","No"
"44","62b068bbd9bcb120d812de65","svTrial","survey",53,3926061,"0.0-2.0-51.0","65553732575bb29198a888d7","6556649fa661c94c45278f3d",3,"17586","Ishikawa_large_pos_7_2.jpg",NA,NA,NA,NA,NA,NA,NA,NA,NA,NA,NA,NA,NA,NA,NA,NA,"[]","large",2,"sch",7,44,2,2,1,2,1,1,"41005","28","female","woman","","caucasian","","No","","No"
"45","62b068bbd9bcb120d812de65","svTrial","survey",54,3940273,"0.0-2.0-52.0","65553732575bb29198a888d7","6556649fa661c94c45278f3d",3,"14169","Toyama_large_pos_5_2.jpg",NA,NA,NA,NA,NA,NA,NA,NA,NA,NA,NA,NA,NA,NA,NA,NA,"[]","small",2,"pos",5,45,4,3,3,2,3,1,"41005","28","female","woman","","caucasian","","No","","No"
"46","62b068bbd9bcb120d812de65","svTrial","survey",55,3953640,"0.0-2.0-53.0","65553732575bb29198a888d7","6556649fa661c94c45278f3d",3,"13314","Niigata_large_pos_9_0.jpg",NA,NA,NA,NA,NA,NA,NA,NA,NA,NA,NA,NA,NA,NA,NA,NA,"[]","small",2,"sch",9,46,3,3,4,3,3,1,"41005","28","female","woman","","caucasian","","No","","No"
"47","62b068bbd9bcb120d812de65","svTrial","survey",56,3967842,"0.0-2.0-54.0","65553732575bb29198a888d7","6556649fa661c94c45278f3d",3,"14167","Niigata_large_sch_3_2.jpg",NA,NA,NA,NA,NA,NA,NA,NA,NA,NA,NA,NA,NA,NA,NA,NA,"[]","large",2,"sch",3,47,4,4,3,3,4,1,"41005","28","female","woman","","caucasian","","No","","No"
"48","62b068bbd9bcb120d812de65","svTrial","survey",57,3983474,"0.0-2.0-55.0","65553732575bb29198a888d7","6556649fa661c94c45278f3d",3,"15585","Hokkaido_middle_pos_1_1.jpg",NA,NA,NA,NA,NA,NA,NA,NA,NA,NA,NA,NA,NA,NA,NA,NA,"[]","small",1,"sch",1,48,3,3,2,2,3,1,"41005","28","female","woman","","caucasian","","No","","No"
