"","subject_id","task","trial_type","trial_index","time_elapsed","internal_node_id","study_id","session_id","group","rt","stimulus","width","height","webaudio","browser","browser_version","mobile","os","fullscreen","vsync_rate","webcam","microphone","success","timeout","failed_images","failed_audio","failed_video","accuracy","size","culture","loct","number","document.id","ambiguous","objects","invisible","chaos","complex","passedChecks","zipcode","age","sex","gender","gender-self-describe","ethnicity","ethnicity-self-describe","outsideUS","outsideUS_years","surveyComments"
"1","62cf6b6df766eafbd3f5a176","svTrial","survey",8,48827,"0.0-2.0-6.0","65553732575bb29198a888d7","65565b4e93eec1d6a08a0234",2,"4004","Akita_large_pos_8_3.jpg",NA,NA,NA,NA,NA,NA,NA,NA,NA,NA,NA,NA,NA,NA,NA,NA,"[]","middle",2,"pos",8,1,5,2,4,4,5,1,"19504","22","male","man","","caucasian","","No","",""
"2","62cf6b6df766eafbd3f5a176","svTrial","survey",9,53507,"0.0-2.0-7.0","65553732575bb29198a888d7","65565b4e93eec1d6a08a0234",2,"4654","Okinawa_large_pos_4_3.jpg",NA,NA,NA,NA,NA,NA,NA,NA,NA,NA,NA,NA,NA,NA,NA,NA,"[]","large",1,"sch",4,2,5,3,5,3,5,1,"19504","22","male","man","","caucasian","","No","",""
"3","62cf6b6df766eafbd3f5a176","svTrial","survey",10,56538,"0.0-2.0-8.0","65553732575bb29198a888d7","65565b4e93eec1d6a08a0234",2,"3009","Ishikawa_large_sch_5_2.jpg",NA,NA,NA,NA,NA,NA,NA,NA,NA,NA,NA,NA,NA,NA,NA,NA,"[]","large",2,"sch",5,3,2,4,3,3,5,1,"19504","22","male","man","","caucasian","","No","",""
"4","62cf6b6df766eafbd3f5a176","svTrial","survey",11,60224,"0.0-2.0-9.0","65553732575bb29198a888d7","65565b4e93eec1d6a08a0234",2,"3666","Niigata_middle_sch_5_0.jpg",NA,NA,NA,NA,NA,NA,NA,NA,NA,NA,NA,NA,NA,NA,NA,NA,"[]","small",2,"pos",5,4,5,1,3,4,3,1,"19504","22","male","man","","caucasian","","No","",""
"5","62cf6b6df766eafbd3f5a176","svTrial","survey",12,64510,"0.0-2.0-10.0","65553732575bb29198a888d7","65565b4e93eec1d6a08a0234",2,"4266","Niigata_large_sch_8_2.jpg",NA,NA,NA,NA,NA,NA,NA,NA,NA,NA,NA,NA,NA,NA,NA,NA,"[]","middle",2,"sch",8,5,4,2,5,3,3,1,"19504","22","male","man","","caucasian","","No","",""
"6","62cf6b6df766eafbd3f5a176","svTrial","survey",13,67897,"0.0-2.0-11.0","65553732575bb29198a888d7","65565b4e93eec1d6a08a0234",2,"3364","Toyama_small_sch_2_2.jpg",NA,NA,NA,NA,NA,NA,NA,NA,NA,NA,NA,NA,NA,NA,NA,NA,"[]","large",2,"pos",2,6,5,2,4,3,5,1,"19504","22","male","man","","caucasian","","No","",""
"7","62cf6b6df766eafbd3f5a176","svTrial","survey",15,77766,"0.0-2.0-13.0","65553732575bb29198a888d7","65565b4e93eec1d6a08a0234",2,"3492","Kanagawa_small_pos_3_1.jpg",NA,NA,NA,NA,NA,NA,NA,NA,NA,NA,NA,NA,NA,NA,NA,NA,"[]","large",1,"sch",3,7,4,4,4,2,4,1,"19504","22","male","man","","caucasian","","No","",""
"8","62cf6b6df766eafbd3f5a176","svTrial","survey",16,81137,"0.0-2.0-14.0","65553732575bb29198a888d7","65565b4e93eec1d6a08a0234",2,"3341","Kanagawa_middle_sch_3_0.jpg",NA,NA,NA,NA,NA,NA,NA,NA,NA,NA,NA,NA,NA,NA,NA,NA,"[]","large",1,"sch",3,8,2,4,3,5,4,1,"19504","22","male","man","","caucasian","","No","",""
"9","62cf6b6df766eafbd3f5a176","svTrial","survey",17,84956,"0.0-2.0-15.0","65553732575bb29198a888d7","65565b4e93eec1d6a08a0234",2,"3803","Toyama_middle_pos_7_2.jpg",NA,NA,NA,NA,NA,NA,NA,NA,NA,NA,NA,NA,NA,NA,NA,NA,"[]","large",2,"sch",7,9,5,3,4,3,1,1,"19504","22","male","man","","caucasian","","No","",""
"10","62cf6b6df766eafbd3f5a176","svTrial","survey",18,89025,"0.0-2.0-16.0","65553732575bb29198a888d7","65565b4e93eec1d6a08a0234",2,"4051","Okinawa_small_pos_2_2.jpg",NA,NA,NA,NA,NA,NA,NA,NA,NA,NA,NA,NA,NA,NA,NA,NA,"[]","large",1,"pos",2,10,4,2,5,3,5,1,"19504","22","male","man","","caucasian","","No","",""
"11","62cf6b6df766eafbd3f5a176","svTrial","survey",19,92902,"0.0-2.0-17.0","65553732575bb29198a888d7","65565b4e93eec1d6a08a0234",2,"3856","Akita_large_sch_3_3.jpg",NA,NA,NA,NA,NA,NA,NA,NA,NA,NA,NA,NA,NA,NA,NA,NA,"[]","small",2,"sch",3,11,4,2,4,3,4,1,"19504","22","male","man","","caucasian","","No","",""
"12","62cf6b6df766eafbd3f5a176","svTrial","survey",20,96081,"0.0-2.0-18.0","65553732575bb29198a888d7","65565b4e93eec1d6a08a0234",2,"3165","Kanagawa_large_sch_7_3.jpg",NA,NA,NA,NA,NA,NA,NA,NA,NA,NA,NA,NA,NA,NA,NA,NA,"[]","middle",1,"pos",7,12,5,2,4,3,5,1,"19504","22","male","man","","caucasian","","No","",""
"13","62cf6b6df766eafbd3f5a176","svTrial","survey",21,98950,"0.0-2.0-19.0","65553732575bb29198a888d7","65565b4e93eec1d6a08a0234",2,"2854","Hokkaido_large_pos_12_0.jpg",NA,NA,NA,NA,NA,NA,NA,NA,NA,NA,NA,NA,NA,NA,NA,NA,"[]","middle",1,"sch",12,13,4,4,3,4,2,1,"19504","22","male","man","","caucasian","","No","",""
"14","62cf6b6df766eafbd3f5a176","svTrial","survey",22,101971,"0.0-2.0-20.0","65553732575bb29198a888d7","65565b4e93eec1d6a08a0234",2,"3004","Tokyo_large_pos_6_1.jpg",NA,NA,NA,NA,NA,NA,NA,NA,NA,NA,NA,NA,NA,NA,NA,NA,"[]","middle",1,"pos",6,14,4,3,5,3,4,1,"19504","22","male","man","","caucasian","","No","",""
"15","62cf6b6df766eafbd3f5a176","svTrial","survey",23,105075,"0.0-2.0-21.0","65553732575bb29198a888d7","65565b4e93eec1d6a08a0234",2,"3088","Tokyo_large_pos_5_2.jpg",NA,NA,NA,NA,NA,NA,NA,NA,NA,NA,NA,NA,NA,NA,NA,NA,"[]","middle",1,"pos",5,15,5,2,5,2,4,1,"19504","22","male","man","","caucasian","","No","",""
"16","62cf6b6df766eafbd3f5a176","svTrial","survey",24,107828,"0.0-2.0-22.0","65553732575bb29198a888d7","65565b4e93eec1d6a08a0234",2,"2735","Kanagawa_large_pos_5_0.jpg",NA,NA,NA,NA,NA,NA,NA,NA,NA,NA,NA,NA,NA,NA,NA,NA,"[]","small",1,"sch",5,16,4,3,4,2,4,1,"19504","22","male","man","","caucasian","","No","",""
"17","62cf6b6df766eafbd3f5a176","svTrial","survey",25,111148,"0.0-2.0-23.0","65553732575bb29198a888d7","65565b4e93eec1d6a08a0234",2,"3304","Ishikawa_large_sch_1_1.jpg",NA,NA,NA,NA,NA,NA,NA,NA,NA,NA,NA,NA,NA,NA,NA,NA,"[]","middle",2,"sch",1,17,1,5,3,3,4,1,"19504","22","male","man","","caucasian","","No","",""
"18","62cf6b6df766eafbd3f5a176","svTrial","survey",26,114188,"0.0-2.0-24.0","65553732575bb29198a888d7","65565b4e93eec1d6a08a0234",2,"3018","Tokyo_small_sch_3_0.jpg",NA,NA,NA,NA,NA,NA,NA,NA,NA,NA,NA,NA,NA,NA,NA,NA,"[]","small",1,"sch",3,18,3,3,5,1,5,1,"19504","22","male","man","","caucasian","","No","",""
"19","62cf6b6df766eafbd3f5a176","svTrial","survey",27,117089,"0.0-2.0-25.0","65553732575bb29198a888d7","65565b4e93eec1d6a08a0234",2,"2881","Toyama_large_sch_5_2.jpg",NA,NA,NA,NA,NA,NA,NA,NA,NA,NA,NA,NA,NA,NA,NA,NA,"[]","large",2,"sch",5,19,5,2,4,3,5,1,"19504","22","male","man","","caucasian","","No","",""
"20","62cf6b6df766eafbd3f5a176","svTrial","survey",28,120840,"0.0-2.0-26.0","65553732575bb29198a888d7","65565b4e93eec1d6a08a0234",2,"3737","Toyama_small_sch_4_1.jpg",NA,NA,NA,NA,NA,NA,NA,NA,NA,NA,NA,NA,NA,NA,NA,NA,"[]","middle",2,"sch",4,20,5,2,4,3,1,1,"19504","22","male","man","","caucasian","","No","",""
"21","62cf6b6df766eafbd3f5a176","svTrial","survey",29,123608,"0.0-2.0-27.0","65553732575bb29198a888d7","65565b4e93eec1d6a08a0234",2,"2754","Akita_middle_sch_2_3.jpg",NA,NA,NA,NA,NA,NA,NA,NA,NA,NA,NA,NA,NA,NA,NA,NA,"[]","middle",2,"sch",2,21,5,3,5,3,4,1,"19504","22","male","man","","caucasian","","No","",""
"22","62cf6b6df766eafbd3f5a176","svTrial","survey",30,126622,"0.0-2.0-28.0","65553732575bb29198a888d7","65565b4e93eec1d6a08a0234",2,"2998","Toyama_large_pos_3_2.jpg",NA,NA,NA,NA,NA,NA,NA,NA,NA,NA,NA,NA,NA,NA,NA,NA,"[]","middle",2,"pos",3,22,4,5,5,2,4,1,"19504","22","male","man","","caucasian","","No","",""
"23","62cf6b6df766eafbd3f5a176","svTrial","survey",31,129767,"0.0-2.0-29.0","65553732575bb29198a888d7","65565b4e93eec1d6a08a0234",2,"3130","Hokkaido_large_sch_6_0.jpg",NA,NA,NA,NA,NA,NA,NA,NA,NA,NA,NA,NA,NA,NA,NA,NA,"[]","small",1,"pos",6,23,5,3,5,2,5,1,"19504","22","male","man","","caucasian","","No","",""
"24","62cf6b6df766eafbd3f5a176","svTrial","survey",32,132669,"0.0-2.0-30.0","65553732575bb29198a888d7","65565b4e93eec1d6a08a0234",2,"2884","Niigata_middle_pos_8_1.jpg",NA,NA,NA,NA,NA,NA,NA,NA,NA,NA,NA,NA,NA,NA,NA,NA,"[]","middle",2,"pos",8,24,4,4,4,2,5,1,"19504","22","male","man","","caucasian","","No","",""
"25","62cf6b6df766eafbd3f5a176","svTrial","survey",34,181449,"0.0-2.0-32.0","65553732575bb29198a888d7","65565b4e93eec1d6a08a0234",2,"46329","Okinawa_large_sch_1_3.jpg",NA,NA,NA,NA,NA,NA,NA,NA,NA,NA,NA,NA,NA,NA,NA,NA,"[]","middle",1,"pos",1,25,5,2,4,3,4,1,"19504","22","male","man","","caucasian","","No","",""
"26","62cf6b6df766eafbd3f5a176","svTrial","survey",35,184368,"0.0-2.0-33.0","65553732575bb29198a888d7","65565b4e93eec1d6a08a0234",2,"2899","Kanagawa_large_sch_4_2.jpg",NA,NA,NA,NA,NA,NA,NA,NA,NA,NA,NA,NA,NA,NA,NA,NA,"[]","middle",1,"sch",4,26,5,2,5,4,4,1,"19504","22","male","man","","caucasian","","No","",""
"27","62cf6b6df766eafbd3f5a176","svTrial","survey",36,188824,"0.0-2.0-34.0","65553732575bb29198a888d7","65565b4e93eec1d6a08a0234",2,"4437","Hokkaido_middle_sch_3_1.jpg",NA,NA,NA,NA,NA,NA,NA,NA,NA,NA,NA,NA,NA,NA,NA,NA,"[]","middle",1,"sch",3,27,4,4,4,2,5,1,"19504","22","male","man","","caucasian","","No","",""
"28","62cf6b6df766eafbd3f5a176","svTrial","survey",37,191892,"0.0-2.0-35.0","65553732575bb29198a888d7","65565b4e93eec1d6a08a0234",2,"3054","Hokkaido_small_sch_4_1.jpg",NA,NA,NA,NA,NA,NA,NA,NA,NA,NA,NA,NA,NA,NA,NA,NA,"[]","small",1,"pos",4,28,3,4,3,5,3,1,"19504","22","male","man","","caucasian","","No","",""
"29","62cf6b6df766eafbd3f5a176","svTrial","survey",38,194696,"0.0-2.0-36.0","65553732575bb29198a888d7","65565b4e93eec1d6a08a0234",2,"2789","Niigata_large_sch_4_1.jpg",NA,NA,NA,NA,NA,NA,NA,NA,NA,NA,NA,NA,NA,NA,NA,NA,"[]","small",2,"sch",4,29,1,5,3,4,4,1,"19504","22","male","man","","caucasian","","No","",""
"30","62cf6b6df766eafbd3f5a176","svTrial","survey",39,197549,"0.0-2.0-37.0","65553732575bb29198a888d7","65565b4e93eec1d6a08a0234",2,"2837","Kanagawa_small_pos_2_3.jpg",NA,NA,NA,NA,NA,NA,NA,NA,NA,NA,NA,NA,NA,NA,NA,NA,"[]","small",1,"sch",2,30,4,3,5,4,3,1,"19504","22","male","man","","caucasian","","No","",""
"31","62cf6b6df766eafbd3f5a176","svTrial","survey",40,202106,"0.0-2.0-38.0","65553732575bb29198a888d7","65565b4e93eec1d6a08a0234",2,"4531","Kanagawa_large_sch_3_2.jpg",NA,NA,NA,NA,NA,NA,NA,NA,NA,NA,NA,NA,NA,NA,NA,NA,"[]","small",1,"pos",3,31,3,5,2,4,3,1,"19504","22","male","man","","caucasian","","No","",""
"32","62cf6b6df766eafbd3f5a176","svTrial","survey",41,204990,"0.0-2.0-39.0","65553732575bb29198a888d7","65565b4e93eec1d6a08a0234",2,"2870","Toyama_middle_pos_2_2.jpg",NA,NA,NA,NA,NA,NA,NA,NA,NA,NA,NA,NA,NA,NA,NA,NA,"[]","middle",2,"pos",2,32,4,3,4,1,5,1,"19504","22","male","man","","caucasian","","No","",""
"33","62cf6b6df766eafbd3f5a176","svTrial","survey",42,209318,"0.0-2.0-40.0","65553732575bb29198a888d7","65565b4e93eec1d6a08a0234",2,"4311","Toyama_middle_pos_5_1.jpg",NA,NA,NA,NA,NA,NA,NA,NA,NA,NA,NA,NA,NA,NA,NA,NA,"[]","large",2,"sch",5,33,4,2,5,3,4,1,"19504","22","male","man","","caucasian","","No","",""
"34","62cf6b6df766eafbd3f5a176","svTrial","survey",43,212771,"0.0-2.0-41.0","65553732575bb29198a888d7","65565b4e93eec1d6a08a0234",2,"3433","Toyama_large_sch_12_0.jpg",NA,NA,NA,NA,NA,NA,NA,NA,NA,NA,NA,NA,NA,NA,NA,NA,"[]","small",2,"pos",12,34,5,3,4,3,4,1,"19504","22","male","man","","caucasian","","No","",""
"35","62cf6b6df766eafbd3f5a176","svTrial","survey",44,216755,"0.0-2.0-42.0","65553732575bb29198a888d7","65565b4e93eec1d6a08a0234",2,"3965","Akita_large_pos_6_3.jpg",NA,NA,NA,NA,NA,NA,NA,NA,NA,NA,NA,NA,NA,NA,NA,NA,"[]","large",2,"sch",6,35,4,2,4,3,4,1,"19504","22","male","man","","caucasian","","No","",""
"36","62cf6b6df766eafbd3f5a176","svTrial","survey",45,219437,"0.0-2.0-43.0","65553732575bb29198a888d7","65565b4e93eec1d6a08a0234",2,"2668","Niigata_large_pos_8_1.jpg",NA,NA,NA,NA,NA,NA,NA,NA,NA,NA,NA,NA,NA,NA,NA,NA,"[]","middle",2,"pos",8,36,4,4,4,2,3,1,"19504","22","male","man","","caucasian","","No","",""
"37","62cf6b6df766eafbd3f5a176","svTrial","survey",46,222275,"0.0-2.0-44.0","65553732575bb29198a888d7","65565b4e93eec1d6a08a0234",2,"2823","Kanagawa_large_sch_6_1.jpg",NA,NA,NA,NA,NA,NA,NA,NA,NA,NA,NA,NA,NA,NA,NA,NA,"[]","middle",1,"pos",6,37,4,2,5,3,4,1,"19504","22","male","man","","caucasian","","No","",""
"38","62cf6b6df766eafbd3f5a176","svTrial","survey",47,224994,"0.0-2.0-45.0","65553732575bb29198a888d7","65565b4e93eec1d6a08a0234",2,"2703","Hokkaido_middle_sch_5_2.jpg",NA,NA,NA,NA,NA,NA,NA,NA,NA,NA,NA,NA,NA,NA,NA,NA,"[]","small",1,"pos",5,38,5,3,4,2,4,1,"19504","22","male","man","","caucasian","","No","",""
"39","62cf6b6df766eafbd3f5a176","svTrial","survey",48,229185,"0.0-2.0-46.0","65553732575bb29198a888d7","65565b4e93eec1d6a08a0234",2,"4164","Okinawa_middle_sch_2_1.jpg",NA,NA,NA,NA,NA,NA,NA,NA,NA,NA,NA,NA,NA,NA,NA,NA,"[]","small",1,"sch",2,39,5,2,5,3,3,1,"19504","22","male","man","","caucasian","","No","",""
"40","62cf6b6df766eafbd3f5a176","svTrial","survey",49,232004,"0.0-2.0-47.0","65553732575bb29198a888d7","65565b4e93eec1d6a08a0234",2,"2798","Toyama_middle_pos_4_3.jpg",NA,NA,NA,NA,NA,NA,NA,NA,NA,NA,NA,NA,NA,NA,NA,NA,"[]","large",2,"sch",4,40,5,4,5,2,5,1,"19504","22","male","man","","caucasian","","No","",""
"41","62cf6b6df766eafbd3f5a176","svTrial","survey",50,234776,"0.0-2.0-48.0","65553732575bb29198a888d7","65565b4e93eec1d6a08a0234",2,"2753","Niigata_large_pos_6_0.jpg",NA,NA,NA,NA,NA,NA,NA,NA,NA,NA,NA,NA,NA,NA,NA,NA,"[]","large",2,"sch",6,41,4,2,5,3,NA,1,"19504","22","male","man","","caucasian","","No","",""
"42","62cf6b6df766eafbd3f5a176","svTrial","survey",51,238179,"0.0-2.0-49.0","65553732575bb29198a888d7","65565b4e93eec1d6a08a0234",2,"3390","Okinawa_large_sch_9_2.jpg",NA,NA,NA,NA,NA,NA,NA,NA,NA,NA,NA,NA,NA,NA,NA,NA,"[]","small",1,"sch",9,42,4,4,5,2,4,1,"19504","22","male","man","","caucasian","","No","",""
"43","62cf6b6df766eafbd3f5a176","svTrial","survey",52,241264,"0.0-2.0-50.0","65553732575bb29198a888d7","65565b4e93eec1d6a08a0234",2,"3070","Akita_middle_sch_7_3.jpg",NA,NA,NA,NA,NA,NA,NA,NA,NA,NA,NA,NA,NA,NA,NA,NA,"[]","large",2,"sch",7,43,5,2,4,3,5,1,"19504","22","male","man","","caucasian","","No","",""
"44","62cf6b6df766eafbd3f5a176","svTrial","survey",53,244065,"0.0-2.0-51.0","65553732575bb29198a888d7","65565b4e93eec1d6a08a0234",2,"2785","Toyama_small_pos_4_1.jpg",NA,NA,NA,NA,NA,NA,NA,NA,NA,NA,NA,NA,NA,NA,NA,NA,"[]","small",2,"sch",4,44,5,2,5,3,5,1,"19504","22","male","man","","caucasian","","No","",""
"45","62cf6b6df766eafbd3f5a176","svTrial","survey",54,246702,"0.0-2.0-52.0","65553732575bb29198a888d7","65565b4e93eec1d6a08a0234",2,"2622","Toyama_large_sch_1_3.jpg",NA,NA,NA,NA,NA,NA,NA,NA,NA,NA,NA,NA,NA,NA,NA,NA,"[]","middle",2,"sch",1,45,3,4,4,2,4,1,"19504","22","male","man","","caucasian","","No","",""
"46","62cf6b6df766eafbd3f5a176","svTrial","survey",55,249594,"0.0-2.0-53.0","65553732575bb29198a888d7","65565b4e93eec1d6a08a0234",2,"2862","Okinawa_large_sch_3_2.jpg",NA,NA,NA,NA,NA,NA,NA,NA,NA,NA,NA,NA,NA,NA,NA,NA,"[]","large",1,"pos",3,46,5,3,5,2,5,1,"19504","22","male","man","","caucasian","","No","",""
"47","62cf6b6df766eafbd3f5a176","svTrial","survey",56,253515,"0.0-2.0-54.0","65553732575bb29198a888d7","65565b4e93eec1d6a08a0234",2,"3899","Okinawa_large_sch_8_2.jpg",NA,NA,NA,NA,NA,NA,NA,NA,NA,NA,NA,NA,NA,NA,NA,NA,"[]","middle",1,"sch",8,47,5,5,5,2,4,1,"19504","22","male","man","","caucasian","","No","",""
"48","62cf6b6df766eafbd3f5a176","svTrial","survey",57,256737,"0.0-2.0-55.0","65553732575bb29198a888d7","65565b4e93eec1d6a08a0234",2,"3203","Tokyo_middle_sch_8_2.jpg",NA,NA,NA,NA,NA,NA,NA,NA,NA,NA,NA,NA,NA,NA,NA,NA,"[]","small",1,"sch",8,48,4,2,4,4,4,1,"19504","22","male","man","","caucasian","","No","",""
