"","subject_id","task","trial_type","trial_index","time_elapsed","internal_node_id","study_id","session_id","group","rt","stimulus","width","height","webaudio","browser","browser_version","mobile","os","fullscreen","vsync_rate","webcam","microphone","success","timeout","failed_images","failed_audio","failed_video","accuracy","size","culture","loct","number","document.id","ambiguous","objects","invisible","chaos","complex","passedChecks","zipcode","age","sex","gender","gender-self-describe","ethnicity","ethnicity-self-describe","outsideUS","outsideUS_years","surveyComments"
"1","62f716849a6ee6e7e2f5a948","svTrial","survey",8,75957,"0.0-2.0-6.0","65553732575bb29198a888d7","65565bd095fb199e7f56b92f",7,"23576","Ishikawa_small_pos_1_2.jpg",NA,NA,NA,NA,NA,NA,NA,NA,NA,NA,NA,NA,NA,NA,NA,NA,"[]","small",2,"pos",1,1,4,4,2,4,3,1,"15317","35","male","man","","caucasian","","No","","Thank you for allowing me to participate!"
"2","62f716849a6ee6e7e2f5a948","svTrial","survey",9,135417,"0.0-2.0-7.0","65553732575bb29198a888d7","65565bd095fb199e7f56b92f",7,"59440","Akita_middle_pos_6_0.jpg",NA,NA,NA,NA,NA,NA,NA,NA,NA,NA,NA,NA,NA,NA,NA,NA,"[]","large",2,"sch",6,2,3,1,4,1,1,1,"15317","35","male","man","","caucasian","","No","","Thank you for allowing me to participate!"
"3","62f716849a6ee6e7e2f5a948","svTrial","survey",10,182995,"0.0-2.0-8.0","65553732575bb29198a888d7","65565bd095fb199e7f56b92f",7,"47552","Hokkaido_large_sch_7_0.jpg",NA,NA,NA,NA,NA,NA,NA,NA,NA,NA,NA,NA,NA,NA,NA,NA,"[]","large",1,"sch",7,3,2,2,3,2,1,1,"15317","35","male","man","","caucasian","","No","","Thank you for allowing me to participate!"
"4","62f716849a6ee6e7e2f5a948","svTrial","survey",11,205901,"0.0-2.0-9.0","65553732575bb29198a888d7","65565bd095fb199e7f56b92f",7,"22886","Tokyo_large_pos_10_2.jpg",NA,NA,NA,NA,NA,NA,NA,NA,NA,NA,NA,NA,NA,NA,NA,NA,"[]","large",1,"sch",10,4,4,4,3,3,3,1,"15317","35","male","man","","caucasian","","No","","Thank you for allowing me to participate!"
"5","62f716849a6ee6e7e2f5a948","svTrial","survey",12,221286,"0.0-2.0-10.0","65553732575bb29198a888d7","65565bd095fb199e7f56b92f",7,"15365","Tokyo_middle_sch_1_3.jpg",NA,NA,NA,NA,NA,NA,NA,NA,NA,NA,NA,NA,NA,NA,NA,NA,"[]","large",1,"sch",1,5,3,1,2,1,2,1,"15317","35","male","man","","caucasian","","No","","Thank you for allowing me to participate!"
"6","62f716849a6ee6e7e2f5a948","svTrial","survey",13,234586,"0.0-2.0-11.0","65553732575bb29198a888d7","65565bd095fb199e7f56b92f",7,"13280","Hokkaido_middle_sch_8_2.jpg",NA,NA,NA,NA,NA,NA,NA,NA,NA,NA,NA,NA,NA,NA,NA,NA,"[]","large",1,"pos",8,6,2,1,2,2,1,1,"15317","35","male","man","","caucasian","","No","","Thank you for allowing me to participate!"
"7","62f716849a6ee6e7e2f5a948","svTrial","survey",14,254286,"0.0-2.0-12.0","65553732575bb29198a888d7","65565bd095fb199e7f56b92f",7,"19683","Toyama_middle_sch_2_3.jpg",NA,NA,NA,NA,NA,NA,NA,NA,NA,NA,NA,NA,NA,NA,NA,NA,"[]","large",2,"pos",2,7,2,1,2,2,1,1,"15317","35","male","man","","caucasian","","No","","Thank you for allowing me to participate!"
"8","62f716849a6ee6e7e2f5a948","svTrial","survey",15,265731,"0.0-2.0-13.0","65553732575bb29198a888d7","65565bd095fb199e7f56b92f",7,"11426","Ishikawa_large_sch_8_2.jpg",NA,NA,NA,NA,NA,NA,NA,NA,NA,NA,NA,NA,NA,NA,NA,NA,"[]","large",2,"pos",8,8,3,2,2,1,1,1,"15317","35","male","man","","caucasian","","No","","Thank you for allowing me to participate!"
"9","62f716849a6ee6e7e2f5a948","svTrial","survey",16,273977,"0.0-2.0-14.0","65553732575bb29198a888d7","65565bd095fb199e7f56b92f",7,"8228","Ishikawa_middle_pos_5_1.jpg",NA,NA,NA,NA,NA,NA,NA,NA,NA,NA,NA,NA,NA,NA,NA,NA,"[]","large",2,"sch",5,9,3,2,1,2,3,1,"15317","35","male","man","","caucasian","","No","","Thank you for allowing me to participate!"
"10","62f716849a6ee6e7e2f5a948","svTrial","survey",17,342480,"0.0-2.0-15.0","65553732575bb29198a888d7","65565bd095fb199e7f56b92f",7,"68483","Kanagawa_large_pos_8_0.jpg",NA,NA,NA,NA,NA,NA,NA,NA,NA,NA,NA,NA,NA,NA,NA,NA,"[]","large",1,"pos",8,10,2,3,3,2,1,1,"15317","35","male","man","","caucasian","","No","","Thank you for allowing me to participate!"
"11","62f716849a6ee6e7e2f5a948","svTrial","survey",18,353009,"0.0-2.0-16.0","65553732575bb29198a888d7","65565bd095fb199e7f56b92f",7,"10512","Toyama_large_sch_3_3.jpg",NA,NA,NA,NA,NA,NA,NA,NA,NA,NA,NA,NA,NA,NA,NA,NA,"[]","large",2,"sch",3,11,2,3,2,1,2,1,"15317","35","male","man","","caucasian","","No","","Thank you for allowing me to participate!"
"12","62f716849a6ee6e7e2f5a948","svTrial","survey",19,362537,"0.0-2.0-17.0","65553732575bb29198a888d7","65565bd095fb199e7f56b92f",7,"9511","Kanagawa_large_sch_1_3.jpg",NA,NA,NA,NA,NA,NA,NA,NA,NA,NA,NA,NA,NA,NA,NA,NA,"[]","middle",1,"sch",1,12,2,3,1,3,1,1,"15317","35","male","man","","caucasian","","No","","Thank you for allowing me to participate!"
"13","62f716849a6ee6e7e2f5a948","svTrial","survey",20,372426,"0.0-2.0-18.0","65553732575bb29198a888d7","65565bd095fb199e7f56b92f",7,"9873","Tokyo_middle_pos_4_0.jpg",NA,NA,NA,NA,NA,NA,NA,NA,NA,NA,NA,NA,NA,NA,NA,NA,"[]","small",1,"pos",4,13,2,2,2,1,1,1,"15317","35","male","man","","caucasian","","No","","Thank you for allowing me to participate!"
"14","62f716849a6ee6e7e2f5a948","svTrial","survey",21,383738,"0.0-2.0-19.0","65553732575bb29198a888d7","65565bd095fb199e7f56b92f",7,"11296","Niigata_large_pos_7_0.jpg",NA,NA,NA,NA,NA,NA,NA,NA,NA,NA,NA,NA,NA,NA,NA,NA,"[]","middle",2,"sch",7,14,1,2,1,1,2,1,"15317","35","male","man","","caucasian","","No","","Thank you for allowing me to participate!"
"15","62f716849a6ee6e7e2f5a948","svTrial","survey",22,393751,"0.0-2.0-20.0","65553732575bb29198a888d7","65565bd095fb199e7f56b92f",7,"9995","Niigata_small_pos_4_0.jpg",NA,NA,NA,NA,NA,NA,NA,NA,NA,NA,NA,NA,NA,NA,NA,NA,"[]","middle",2,"sch",4,15,2,1,1,2,1,1,"15317","35","male","man","","caucasian","","No","","Thank you for allowing me to participate!"
"16","62f716849a6ee6e7e2f5a948","svTrial","survey",23,407552,"0.0-2.0-21.0","65553732575bb29198a888d7","65565bd095fb199e7f56b92f",7,"13786","Tokyo_large_sch_6_1.jpg",NA,NA,NA,NA,NA,NA,NA,NA,NA,NA,NA,NA,NA,NA,NA,NA,"[]","large",1,"sch",6,16,3,3,3,2,2,1,"15317","35","male","man","","caucasian","","No","","Thank you for allowing me to participate!"
"17","62f716849a6ee6e7e2f5a948","svTrial","survey",24,419664,"0.0-2.0-22.0","65553732575bb29198a888d7","65565bd095fb199e7f56b92f",7,"12087","Hokkaido_large_sch_9_2.jpg",NA,NA,NA,NA,NA,NA,NA,NA,NA,NA,NA,NA,NA,NA,NA,NA,"[]","large",1,"sch",9,17,1,2,2,1,2,1,"15317","35","male","man","","caucasian","","No","","Thank you for allowing me to participate!"
"18","62f716849a6ee6e7e2f5a948","svTrial","survey",25,462300,"0.0-2.0-23.0","65553732575bb29198a888d7","65565bd095fb199e7f56b92f",7,"42620","Niigata_large_sch_6_1.jpg",NA,NA,NA,NA,NA,NA,NA,NA,NA,NA,NA,NA,NA,NA,NA,NA,"[]","small",2,"sch",6,18,4,2,4,4,2,1,"15317","35","male","man","","caucasian","","No","","Thank you for allowing me to participate!"
"19","62f716849a6ee6e7e2f5a948","svTrial","survey",26,473061,"0.0-2.0-24.0","65553732575bb29198a888d7","65565bd095fb199e7f56b92f",7,"10739","Okinawa_large_pos_7_1.jpg",NA,NA,NA,NA,NA,NA,NA,NA,NA,NA,NA,NA,NA,NA,NA,NA,"[]","large",1,"sch",7,19,3,3,3,3,2,1,"15317","35","male","man","","caucasian","","No","","Thank you for allowing me to participate!"
"20","62f716849a6ee6e7e2f5a948","svTrial","survey",27,488851,"0.0-2.0-25.0","65553732575bb29198a888d7","65565bd095fb199e7f56b92f",7,"15773","Akita_middle_pos_4_2.jpg",NA,NA,NA,NA,NA,NA,NA,NA,NA,NA,NA,NA,NA,NA,NA,NA,"[]","large",2,"pos",4,20,2,3,2,2,1,1,"15317","35","male","man","","caucasian","","No","","Thank you for allowing me to participate!"
"21","62f716849a6ee6e7e2f5a948","svTrial","survey",29,514425,"0.0-2.0-27.0","65553732575bb29198a888d7","65565bd095fb199e7f56b92f",7,"16089","Tokyo_large_pos_11_3.jpg",NA,NA,NA,NA,NA,NA,NA,NA,NA,NA,NA,NA,NA,NA,NA,NA,"[]","small",1,"sch",11,21,2,2,2,1,1,1,"15317","35","male","man","","caucasian","","No","","Thank you for allowing me to participate!"
"22","62f716849a6ee6e7e2f5a948","svTrial","survey",30,531679,"0.0-2.0-28.0","65553732575bb29198a888d7","65565bd095fb199e7f56b92f",7,"17234","Kanagawa_middle_sch_4_3.jpg",NA,NA,NA,NA,NA,NA,NA,NA,NA,NA,NA,NA,NA,NA,NA,NA,"[]","middle",1,"sch",4,22,2,2,2,2,1,1,"15317","35","male","man","","caucasian","","No","","Thank you for allowing me to participate!"
"23","62f716849a6ee6e7e2f5a948","svTrial","survey",31,541372,"0.0-2.0-29.0","65553732575bb29198a888d7","65565bd095fb199e7f56b92f",7,"9675","Hokkaido_middle_pos_5_1.jpg",NA,NA,NA,NA,NA,NA,NA,NA,NA,NA,NA,NA,NA,NA,NA,NA,"[]","middle",1,"pos",5,23,2,2,3,1,2,1,"15317","35","male","man","","caucasian","","No","","Thank you for allowing me to participate!"
"24","62f716849a6ee6e7e2f5a948","svTrial","survey",32,551524,"0.0-2.0-30.0","65553732575bb29198a888d7","65565bd095fb199e7f56b92f",7,"10134","Niigata_middle_sch_3_0.jpg",NA,NA,NA,NA,NA,NA,NA,NA,NA,NA,NA,NA,NA,NA,NA,NA,"[]","middle",2,"pos",3,24,2,2,3,2,1,1,"15317","35","male","man","","caucasian","","No","","Thank you for allowing me to participate!"
"25","62f716849a6ee6e7e2f5a948","svTrial","survey",34,581260,"0.0-2.0-32.0","65553732575bb29198a888d7","65565bd095fb199e7f56b92f",7,"13952","Hokkaido_small_pos_4_1.jpg",NA,NA,NA,NA,NA,NA,NA,NA,NA,NA,NA,NA,NA,NA,NA,NA,"[]","small",1,"pos",4,25,1,1,2,1,1,1,"15317","35","male","man","","caucasian","","No","","Thank you for allowing me to participate!"
"26","62f716849a6ee6e7e2f5a948","svTrial","survey",35,590184,"0.0-2.0-33.0","65553732575bb29198a888d7","65565bd095fb199e7f56b92f",7,"8907","Ishikawa_middle_sch_6_0.jpg",NA,NA,NA,NA,NA,NA,NA,NA,NA,NA,NA,NA,NA,NA,NA,NA,"[]","large",2,"sch",6,26,2,2,1,2,1,1,"15317","35","male","man","","caucasian","","No","","Thank you for allowing me to participate!"
"27","62f716849a6ee6e7e2f5a948","svTrial","survey",36,598284,"0.0-2.0-34.0","65553732575bb29198a888d7","65565bd095fb199e7f56b92f",7,"8083","Akita_middle_sch_3_2.jpg",NA,NA,NA,NA,NA,NA,NA,NA,NA,NA,NA,NA,NA,NA,NA,NA,"[]","large",2,"pos",3,27,1,1,1,1,1,1,"15317","35","male","man","","caucasian","","No","","Thank you for allowing me to participate!"
"28","62f716849a6ee6e7e2f5a948","svTrial","survey",37,611695,"0.0-2.0-35.0","65553732575bb29198a888d7","65565bd095fb199e7f56b92f",7,"13393","Niigata_small_sch_2_2.jpg",NA,NA,NA,NA,NA,NA,NA,NA,NA,NA,NA,NA,NA,NA,NA,NA,"[]","small",2,"sch",2,28,2,2,3,3,1,1,"15317","35","male","man","","caucasian","","No","","Thank you for allowing me to participate!"
"29","62f716849a6ee6e7e2f5a948","svTrial","survey",38,628628,"0.0-2.0-36.0","65553732575bb29198a888d7","65565bd095fb199e7f56b92f",7,"16917","Tokyo_large_sch_4_3.jpg",NA,NA,NA,NA,NA,NA,NA,NA,NA,NA,NA,NA,NA,NA,NA,NA,"[]","small",1,"pos",4,29,4,3,4,4,4,1,"15317","35","male","man","","caucasian","","No","","Thank you for allowing me to participate!"
"30","62f716849a6ee6e7e2f5a948","svTrial","survey",39,638476,"0.0-2.0-37.0","65553732575bb29198a888d7","65565bd095fb199e7f56b92f",7,"9828","Hokkaido_large_pos_6_3.jpg",NA,NA,NA,NA,NA,NA,NA,NA,NA,NA,NA,NA,NA,NA,NA,NA,"[]","middle",1,"pos",6,30,2,2,3,2,2,1,"15317","35","male","man","","caucasian","","No","","Thank you for allowing me to participate!"
"31","62f716849a6ee6e7e2f5a948","svTrial","survey",40,645762,"0.0-2.0-38.0","65553732575bb29198a888d7","65565bd095fb199e7f56b92f",7,"7266","Niigata_middle_sch_1_1.jpg",NA,NA,NA,NA,NA,NA,NA,NA,NA,NA,NA,NA,NA,NA,NA,NA,"[]","large",2,"sch",1,31,2,2,2,2,1,1,"15317","35","male","man","","caucasian","","No","","Thank you for allowing me to participate!"
"32","62f716849a6ee6e7e2f5a948","svTrial","survey",41,658192,"0.0-2.0-39.0","65553732575bb29198a888d7","65565bd095fb199e7f56b92f",7,"12412","Akita_small_pos_3_3.jpg",NA,NA,NA,NA,NA,NA,NA,NA,NA,NA,NA,NA,NA,NA,NA,NA,"[]","small",2,"pos",3,32,4,4,4,3,2,1,"15317","35","male","man","","caucasian","","No","","Thank you for allowing me to participate!"
"33","62f716849a6ee6e7e2f5a948","svTrial","survey",42,670319,"0.0-2.0-40.0","65553732575bb29198a888d7","65565bd095fb199e7f56b92f",7,"12111","Okinawa_middle_sch_6_1.jpg",NA,NA,NA,NA,NA,NA,NA,NA,NA,NA,NA,NA,NA,NA,NA,NA,"[]","small",1,"sch",6,33,3,2,3,3,2,1,"15317","35","male","man","","caucasian","","No","","Thank you for allowing me to participate!"
"34","62f716849a6ee6e7e2f5a948","svTrial","survey",43,681472,"0.0-2.0-41.0","65553732575bb29198a888d7","65565bd095fb199e7f56b92f",7,"11137","Akita_small_pos_1_3.jpg",NA,NA,NA,NA,NA,NA,NA,NA,NA,NA,NA,NA,NA,NA,NA,NA,"[]","middle",2,"pos",1,34,3,2,2,2,2,1,"15317","35","male","man","","caucasian","","No","","Thank you for allowing me to participate!"
"35","62f716849a6ee6e7e2f5a948","svTrial","survey",44,694496,"0.0-2.0-42.0","65553732575bb29198a888d7","65565bd095fb199e7f56b92f",7,"13004","Okinawa_middle_sch_8_1.jpg",NA,NA,NA,NA,NA,NA,NA,NA,NA,NA,NA,NA,NA,NA,NA,NA,"[]","large",1,"sch",8,35,3,3,4,3,2,1,"15317","35","male","man","","caucasian","","No","","Thank you for allowing me to participate!"
"36","62f716849a6ee6e7e2f5a948","svTrial","survey",45,707761,"0.0-2.0-43.0","65553732575bb29198a888d7","65565bd095fb199e7f56b92f",7,"13249","Ishikawa_large_sch_7_0.jpg",NA,NA,NA,NA,NA,NA,NA,NA,NA,NA,NA,NA,NA,NA,NA,NA,"[]","large",2,"pos",7,36,3,2,3,2,2,1,"15317","35","male","man","","caucasian","","No","","Thank you for allowing me to participate!"
"37","62f716849a6ee6e7e2f5a948","svTrial","survey",46,723615,"0.0-2.0-44.0","65553732575bb29198a888d7","65565bd095fb199e7f56b92f",7,"15836","Hokkaido_large_pos_8_2.jpg",NA,NA,NA,NA,NA,NA,NA,NA,NA,NA,NA,NA,NA,NA,NA,NA,"[]","small",1,"sch",8,37,3,2,3,2,2,1,"15317","35","male","man","","caucasian","","No","","Thank you for allowing me to participate!"
"38","62f716849a6ee6e7e2f5a948","svTrial","survey",47,732693,"0.0-2.0-45.0","65553732575bb29198a888d7","65565bd095fb199e7f56b92f",7,"9063","Tokyo_middle_sch_4_1.jpg",NA,NA,NA,NA,NA,NA,NA,NA,NA,NA,NA,NA,NA,NA,NA,NA,"[]","large",1,"sch",4,38,2,2,2,2,1,1,"15317","35","male","man","","caucasian","","No","","Thank you for allowing me to participate!"
"39","62f716849a6ee6e7e2f5a948","svTrial","survey",48,745674,"0.0-2.0-46.0","65553732575bb29198a888d7","65565bd095fb199e7f56b92f",7,"12965","Hokkaido_small_sch_1_2.jpg",NA,NA,NA,NA,NA,NA,NA,NA,NA,NA,NA,NA,NA,NA,NA,NA,"[]","small",1,"pos",1,39,2,2,2,2,2,1,"15317","35","male","man","","caucasian","","No","","Thank you for allowing me to participate!"
"40","62f716849a6ee6e7e2f5a948","svTrial","survey",49,757601,"0.0-2.0-47.0","65553732575bb29198a888d7","65565bd095fb199e7f56b92f",7,"11909","Ishikawa_middle_sch_3_2.jpg",NA,NA,NA,NA,NA,NA,NA,NA,NA,NA,NA,NA,NA,NA,NA,NA,"[]","small",2,"sch",3,40,2,3,4,2,1,1,"15317","35","male","man","","caucasian","","No","","Thank you for allowing me to participate!"
"41","62f716849a6ee6e7e2f5a948","svTrial","survey",50,767672,"0.0-2.0-48.0","65553732575bb29198a888d7","65565bd095fb199e7f56b92f",7,"10055","Ishikawa_middle_sch_7_1.jpg",NA,NA,NA,NA,NA,NA,NA,NA,NA,NA,NA,NA,NA,NA,NA,NA,"[]","large",2,"pos",7,41,4,3,3,2,2,1,"15317","35","male","man","","caucasian","","No","","Thank you for allowing me to participate!"
"42","62f716849a6ee6e7e2f5a948","svTrial","survey",51,776345,"0.0-2.0-49.0","65553732575bb29198a888d7","65565bd095fb199e7f56b92f",7,"8654","Tokyo_large_sch_3_2.jpg",NA,NA,NA,NA,NA,NA,NA,NA,NA,NA,NA,NA,NA,NA,NA,NA,"[]","large",1,"sch",3,42,3,3,2,2,1,1,"15317","35","male","man","","caucasian","","No","","Thank you for allowing me to participate!"
"43","62f716849a6ee6e7e2f5a948","svTrial","survey",52,789346,"0.0-2.0-50.0","65553732575bb29198a888d7","65565bd095fb199e7f56b92f",7,"12983","Akita_middle_pos_8_2.jpg",NA,NA,NA,NA,NA,NA,NA,NA,NA,NA,NA,NA,NA,NA,NA,NA,"[]","small",2,"sch",8,43,1,2,1,1,1,1,"15317","35","male","man","","caucasian","","No","","Thank you for allowing me to participate!"
"44","62f716849a6ee6e7e2f5a948","svTrial","survey",53,802194,"0.0-2.0-51.0","65553732575bb29198a888d7","65565bd095fb199e7f56b92f",7,"12831","Niigata_large_sch_12_1.jpg",NA,NA,NA,NA,NA,NA,NA,NA,NA,NA,NA,NA,NA,NA,NA,NA,"[]","middle",2,"sch",12,44,3,2,4,2,2,1,"15317","35","male","man","","caucasian","","No","","Thank you for allowing me to participate!"
"45","62f716849a6ee6e7e2f5a948","svTrial","survey",54,809445,"0.0-2.0-52.0","65553732575bb29198a888d7","65565bd095fb199e7f56b92f",7,"7234","Toyama_large_sch_7_1.jpg",NA,NA,NA,NA,NA,NA,NA,NA,NA,NA,NA,NA,NA,NA,NA,NA,"[]","small",2,"sch",7,45,2,2,1,2,2,1,"15317","35","male","man","","caucasian","","No","","Thank you for allowing me to participate!"
"46","62f716849a6ee6e7e2f5a948","svTrial","survey",55,819825,"0.0-2.0-53.0","65553732575bb29198a888d7","65565bd095fb199e7f56b92f",7,"10363","Ishikawa_small_pos_2_2.jpg",NA,NA,NA,NA,NA,NA,NA,NA,NA,NA,NA,NA,NA,NA,NA,NA,"[]","middle",2,"pos",2,46,3,2,1,2,2,1,"15317","35","male","man","","caucasian","","No","","Thank you for allowing me to participate!"
"47","62f716849a6ee6e7e2f5a948","svTrial","survey",56,830953,"0.0-2.0-54.0","65553732575bb29198a888d7","65565bd095fb199e7f56b92f",7,"11108","Okinawa_middle_pos_5_1.jpg",NA,NA,NA,NA,NA,NA,NA,NA,NA,NA,NA,NA,NA,NA,NA,NA,"[]","large",1,"sch",5,47,2,2,3,2,2,1,"15317","35","male","man","","caucasian","","No","","Thank you for allowing me to participate!"
"48","62f716849a6ee6e7e2f5a948","svTrial","survey",57,843610,"0.0-2.0-55.0","65553732575bb29198a888d7","65565bd095fb199e7f56b92f",7,"12642","Okinawa_small_sch_3_3.jpg",NA,NA,NA,NA,NA,NA,NA,NA,NA,NA,NA,NA,NA,NA,NA,NA,"[]","large",1,"sch",3,48,2,4,5,2,2,1,"15317","35","male","man","","caucasian","","No","","Thank you for allowing me to participate!"
