"","subject_id","task","trial_type","trial_index","time_elapsed","internal_node_id","study_id","session_id","group","rt","stimulus","width","height","webaudio","browser","browser_version","mobile","os","fullscreen","vsync_rate","webcam","microphone","success","timeout","failed_images","failed_audio","failed_video","accuracy","size","culture","loct","number","document.id","ambiguous","objects","invisible","chaos","complex","passedChecks","zipcode","age","sex","gender","gender-self-describe","ethnicity","ethnicity-self-describe","outsideUS","outsideUS_years","surveyComments"
"1","63254db937c17e8e9200fd54","svTrial","survey",8,100641,"0.0-2.0-6.0","65553732575bb29198a888d7","65566dc54b0751069c9b7586",4,"41818","Hokkaido_middle_pos_8_1.jpg",NA,NA,NA,NA,NA,NA,NA,NA,NA,NA,NA,NA,NA,NA,NA,NA,"[]","middle",1,"pos",8,1,3,2,2,2,1,1,"33130","27","male","man","","latino","","No","",""
"2","63254db937c17e8e9200fd54","svTrial","survey",9,112866,"0.0-2.0-7.0","65553732575bb29198a888d7","65566dc54b0751069c9b7586",4,"12217","Kanagawa_middle_pos_3_2.jpg",NA,NA,NA,NA,NA,NA,NA,NA,NA,NA,NA,NA,NA,NA,NA,NA,"[]","large",1,"pos",3,2,1,1,1,1,1,1,"33130","27","male","man","","latino","","No","",""
"3","63254db937c17e8e9200fd54","svTrial","survey",10,126433,"0.0-2.0-8.0","65553732575bb29198a888d7","65566dc54b0751069c9b7586",4,"13561","Kanagawa_large_sch_9_3.jpg",NA,NA,NA,NA,NA,NA,NA,NA,NA,NA,NA,NA,NA,NA,NA,NA,"[]","large",1,"pos",9,3,2,2,2,2,2,1,"33130","27","male","man","","latino","","No","",""
"4","63254db937c17e8e9200fd54","svTrial","survey",11,137366,"0.0-2.0-9.0","65553732575bb29198a888d7","65566dc54b0751069c9b7586",4,"10928","Okinawa_large_sch_7_2.jpg",NA,NA,NA,NA,NA,NA,NA,NA,NA,NA,NA,NA,NA,NA,NA,NA,"[]","small",1,"pos",7,4,3,3,3,3,3,1,"33130","27","male","man","","latino","","No","",""
"5","63254db937c17e8e9200fd54","svTrial","survey",12,163502,"0.0-2.0-10.0","65553732575bb29198a888d7","65566dc54b0751069c9b7586",4,"26130","Tokyo_large_sch_12_0.jpg",NA,NA,NA,NA,NA,NA,NA,NA,NA,NA,NA,NA,NA,NA,NA,NA,"[]","middle",1,"sch",12,5,5,5,5,3,3,1,"33130","27","male","man","","latino","","No","",""
"6","63254db937c17e8e9200fd54","svTrial","survey",13,179644,"0.0-2.0-11.0","65553732575bb29198a888d7","65566dc54b0751069c9b7586",4,"16138","Tokyo_middle_pos_8_1.jpg",NA,NA,NA,NA,NA,NA,NA,NA,NA,NA,NA,NA,NA,NA,NA,NA,"[]","large",1,"sch",8,6,4,4,4,3,3,1,"33130","27","male","man","","latino","","No","",""
"7","63254db937c17e8e9200fd54","svTrial","survey",14,191254,"0.0-2.0-12.0","65553732575bb29198a888d7","65566dc54b0751069c9b7586",4,"11605","Okinawa_small_pos_4_1.jpg",NA,NA,NA,NA,NA,NA,NA,NA,NA,NA,NA,NA,NA,NA,NA,NA,"[]","middle",1,"sch",4,7,1,1,1,1,1,1,"33130","27","male","man","","latino","","No","",""
"8","63254db937c17e8e9200fd54","svTrial","survey",15,203641,"0.0-2.0-13.0","65553732575bb29198a888d7","65566dc54b0751069c9b7586",4,"12382","Ishikawa_middle_sch_5_3.jpg",NA,NA,NA,NA,NA,NA,NA,NA,NA,NA,NA,NA,NA,NA,NA,NA,"[]","small",2,"sch",5,8,1,1,1,1,1,1,"33130","27","male","man","","latino","","No","",""
"9","63254db937c17e8e9200fd54","svTrial","survey",16,229684,"0.0-2.0-14.0","65553732575bb29198a888d7","65566dc54b0751069c9b7586",4,"26038","Hokkaido_large_pos_1_3.jpg",NA,NA,NA,NA,NA,NA,NA,NA,NA,NA,NA,NA,NA,NA,NA,NA,"[]","large",1,"sch",1,9,1,1,1,1,1,1,"33130","27","male","man","","latino","","No","",""
"10","63254db937c17e8e9200fd54","svTrial","survey",17,245365,"0.0-2.0-15.0","65553732575bb29198a888d7","65566dc54b0751069c9b7586",4,"15677","Tokyo_large_pos_3_3.jpg",NA,NA,NA,NA,NA,NA,NA,NA,NA,NA,NA,NA,NA,NA,NA,NA,"[]","large",1,"sch",3,10,1,1,1,1,1,1,"33130","27","male","man","","latino","","No","",""
"11","63254db937c17e8e9200fd54","svTrial","survey",18,260800,"0.0-2.0-16.0","65553732575bb29198a888d7","65566dc54b0751069c9b7586",4,"15431","Tokyo_middle_sch_3_0.jpg",NA,NA,NA,NA,NA,NA,NA,NA,NA,NA,NA,NA,NA,NA,NA,NA,"[]","middle",1,"pos",3,11,3,3,3,2,3,1,"33130","27","male","man","","latino","","No","",""
"12","63254db937c17e8e9200fd54","svTrial","survey",19,271657,"0.0-2.0-17.0","65553732575bb29198a888d7","65566dc54b0751069c9b7586",4,"10851","Ishikawa_large_pos_4_1.jpg",NA,NA,NA,NA,NA,NA,NA,NA,NA,NA,NA,NA,NA,NA,NA,NA,"[]","middle",2,"pos",4,12,1,1,1,1,1,1,"33130","27","male","man","","latino","","No","",""
"13","63254db937c17e8e9200fd54","svTrial","survey",20,282100,"0.0-2.0-18.0","65553732575bb29198a888d7","65566dc54b0751069c9b7586",4,"10438","Akita_large_sch_11_0.jpg",NA,NA,NA,NA,NA,NA,NA,NA,NA,NA,NA,NA,NA,NA,NA,NA,"[]","small",2,"sch",11,13,5,5,5,3,3,1,"33130","27","male","man","","latino","","No","",""
"14","63254db937c17e8e9200fd54","svTrial","survey",21,295022,"0.0-2.0-19.0","65553732575bb29198a888d7","65566dc54b0751069c9b7586",4,"12918","Ishikawa_middle_sch_4_1.jpg",NA,NA,NA,NA,NA,NA,NA,NA,NA,NA,NA,NA,NA,NA,NA,NA,"[]","middle",2,"sch",4,14,1,2,2,1,1,1,"33130","27","male","man","","latino","","No","",""
"15","63254db937c17e8e9200fd54","svTrial","survey",22,308323,"0.0-2.0-20.0","65553732575bb29198a888d7","65566dc54b0751069c9b7586",4,"13294","Toyama_small_pos_2_1.jpg",NA,NA,NA,NA,NA,NA,NA,NA,NA,NA,NA,NA,NA,NA,NA,NA,"[]","small",2,"sch",2,15,3,3,2,1,1,1,"33130","27","male","man","","latino","","No","",""
"16","63254db937c17e8e9200fd54","svTrial","survey",23,324003,"0.0-2.0-21.0","65553732575bb29198a888d7","65566dc54b0751069c9b7586",4,"15674","Kanagawa_middle_pos_5_2.jpg",NA,NA,NA,NA,NA,NA,NA,NA,NA,NA,NA,NA,NA,NA,NA,NA,"[]","large",1,"pos",5,16,4,4,3,4,3,1,"33130","27","male","man","","latino","","No","",""
"17","63254db937c17e8e9200fd54","svTrial","survey",24,336206,"0.0-2.0-22.0","65553732575bb29198a888d7","65566dc54b0751069c9b7586",4,"12198","Kanagawa_large_pos_9_3.jpg",NA,NA,NA,NA,NA,NA,NA,NA,NA,NA,NA,NA,NA,NA,NA,NA,"[]","small",1,"pos",9,17,5,5,5,3,3,1,"33130","27","male","man","","latino","","No","",""
"18","63254db937c17e8e9200fd54","svTrial","survey",25,343499,"0.0-2.0-23.0","65553732575bb29198a888d7","65566dc54b0751069c9b7586",4,"7288","Hokkaido_middle_sch_7_1.jpg",NA,NA,NA,NA,NA,NA,NA,NA,NA,NA,NA,NA,NA,NA,NA,NA,"[]","small",1,"pos",7,18,5,5,5,5,5,1,"33130","27","male","man","","latino","","No","",""
"19","63254db937c17e8e9200fd54","svTrial","survey",26,363929,"0.0-2.0-24.0","65553732575bb29198a888d7","65566dc54b0751069c9b7586",4,"20424","Tokyo_middle_pos_7_2.jpg",NA,NA,NA,NA,NA,NA,NA,NA,NA,NA,NA,NA,NA,NA,NA,NA,"[]","middle",1,"pos",7,19,3,3,3,3,3,1,"33130","27","male","man","","latino","","No","",""
"20","63254db937c17e8e9200fd54","svTrial","survey",27,407231,"0.0-2.0-25.0","65553732575bb29198a888d7","65566dc54b0751069c9b7586",4,"43297","Akita_large_sch_9_0.jpg",NA,NA,NA,NA,NA,NA,NA,NA,NA,NA,NA,NA,NA,NA,NA,NA,"[]","large",2,"pos",9,20,1,1,1,1,1,1,"33130","27","male","man","","latino","","No","",""
"21","63254db937c17e8e9200fd54","svTrial","survey",28,417977,"0.0-2.0-26.0","65553732575bb29198a888d7","65566dc54b0751069c9b7586",4,"10741","Ishikawa_large_sch_2_0.jpg",NA,NA,NA,NA,NA,NA,NA,NA,NA,NA,NA,NA,NA,NA,NA,NA,"[]","middle",2,"sch",2,21,5,5,5,4,3,1,"33130","27","male","man","","latino","","No","",""
"22","63254db937c17e8e9200fd54","svTrial","survey",29,425950,"0.0-2.0-27.0","65553732575bb29198a888d7","65566dc54b0751069c9b7586",4,"7968","Ishikawa_middle_sch_1_1.jpg",NA,NA,NA,NA,NA,NA,NA,NA,NA,NA,NA,NA,NA,NA,NA,NA,"[]","small",2,"sch",1,22,1,1,1,1,1,1,"33130","27","male","man","","latino","","No","",""
"23","63254db937c17e8e9200fd54","svTrial","survey",30,437176,"0.0-2.0-28.0","65553732575bb29198a888d7","65566dc54b0751069c9b7586",4,"11221","Akita_small_pos_4_2.jpg",NA,NA,NA,NA,NA,NA,NA,NA,NA,NA,NA,NA,NA,NA,NA,NA,"[]","small",2,"pos",4,23,2,2,2,1,1,1,"33130","27","male","man","","latino","","No","",""
"24","63254db937c17e8e9200fd54","svTrial","survey",31,448966,"0.0-2.0-29.0","65553732575bb29198a888d7","65566dc54b0751069c9b7586",4,"11786","Niigata_large_pos_10_0.jpg",NA,NA,NA,NA,NA,NA,NA,NA,NA,NA,NA,NA,NA,NA,NA,NA,"[]","small",2,"pos",10,24,2,2,2,1,1,1,"33130","27","male","man","","latino","","No","",""
"25","63254db937c17e8e9200fd54","svTrial","survey",33,475208,"0.0-2.0-31.0","65553732575bb29198a888d7","65566dc54b0751069c9b7586",4,"10478","Tokyo_small_pos_4_2.jpg",NA,NA,NA,NA,NA,NA,NA,NA,NA,NA,NA,NA,NA,NA,NA,NA,"[]","large",1,"sch",4,25,5,5,5,3,3,1,"33130","27","male","man","","latino","","No","",""
"26","63254db937c17e8e9200fd54","svTrial","survey",34,484589,"0.0-2.0-32.0","65553732575bb29198a888d7","65566dc54b0751069c9b7586",4,"9375","Toyama_middle_sch_3_1.jpg",NA,NA,NA,NA,NA,NA,NA,NA,NA,NA,NA,NA,NA,NA,NA,NA,"[]","large",2,"sch",3,26,2,2,2,1,1,1,"33130","27","male","man","","latino","","No","",""
"27","63254db937c17e8e9200fd54","svTrial","survey",35,490985,"0.0-2.0-33.0","65553732575bb29198a888d7","65566dc54b0751069c9b7586",4,"6392","Kanagawa_middle_pos_8_3.jpg",NA,NA,NA,NA,NA,NA,NA,NA,NA,NA,NA,NA,NA,NA,NA,NA,"[]","middle",1,"sch",8,27,5,5,5,5,5,1,"33130","27","male","man","","latino","","No","",""
"28","63254db937c17e8e9200fd54","svTrial","survey",36,506098,"0.0-2.0-34.0","65553732575bb29198a888d7","65566dc54b0751069c9b7586",4,"15109","Ishikawa_middle_sch_8_2.jpg",NA,NA,NA,NA,NA,NA,NA,NA,NA,NA,NA,NA,NA,NA,NA,NA,"[]","middle",2,"sch",8,28,3,3,4,4,4,1,"33130","27","male","man","","latino","","No","",""
"29","63254db937c17e8e9200fd54","svTrial","survey",37,522091,"0.0-2.0-35.0","65553732575bb29198a888d7","65566dc54b0751069c9b7586",4,"15989","Okinawa_middle_sch_7_0.jpg",NA,NA,NA,NA,NA,NA,NA,NA,NA,NA,NA,NA,NA,NA,NA,NA,"[]","large",1,"pos",7,29,4,4,5,3,3,1,"33130","27","male","man","","latino","","No","",""
"30","63254db937c17e8e9200fd54","svTrial","survey",38,528433,"0.0-2.0-36.0","65553732575bb29198a888d7","65566dc54b0751069c9b7586",4,"6336","Okinawa_large_pos_8_2.jpg",NA,NA,NA,NA,NA,NA,NA,NA,NA,NA,NA,NA,NA,NA,NA,NA,"[]","middle",1,"pos",8,30,5,5,5,5,5,1,"33130","27","male","man","","latino","","No","",""
"31","63254db937c17e8e9200fd54","svTrial","survey",39,536462,"0.0-2.0-37.0","65553732575bb29198a888d7","65566dc54b0751069c9b7586",4,"8024","Ishikawa_large_sch_12_1.jpg",NA,NA,NA,NA,NA,NA,NA,NA,NA,NA,NA,NA,NA,NA,NA,NA,"[]","middle",2,"pos",12,31,5,5,5,5,5,1,"33130","27","male","man","","latino","","No","",""
"32","63254db937c17e8e9200fd54","svTrial","survey",40,544329,"0.0-2.0-38.0","65553732575bb29198a888d7","65566dc54b0751069c9b7586",4,"7864","Akita_middle_sch_5_0.jpg",NA,NA,NA,NA,NA,NA,NA,NA,NA,NA,NA,NA,NA,NA,NA,NA,"[]","small",2,"pos",5,32,5,5,5,5,5,1,"33130","27","male","man","","latino","","No","",""
"33","63254db937c17e8e9200fd54","svTrial","survey",41,552142,"0.0-2.0-39.0","65553732575bb29198a888d7","65566dc54b0751069c9b7586",4,"7809","Akita_large_pos_3_3.jpg",NA,NA,NA,NA,NA,NA,NA,NA,NA,NA,NA,NA,NA,NA,NA,NA,"[]","middle",2,"pos",3,33,5,5,5,5,5,1,"33130","27","male","man","","latino","","No","",""
"34","63254db937c17e8e9200fd54","svTrial","survey",42,563082,"0.0-2.0-40.0","65553732575bb29198a888d7","65566dc54b0751069c9b7586",4,"10936","Toyama_middle_sch_7_3.jpg",NA,NA,NA,NA,NA,NA,NA,NA,NA,NA,NA,NA,NA,NA,NA,NA,"[]","middle",2,"pos",7,34,4,4,4,3,4,1,"33130","27","male","man","","latino","","No","",""
"35","63254db937c17e8e9200fd54","svTrial","survey",43,568391,"0.0-2.0-41.0","65553732575bb29198a888d7","65566dc54b0751069c9b7586",4,"5304","Tokyo_small_pos_1_0.jpg",NA,NA,NA,NA,NA,NA,NA,NA,NA,NA,NA,NA,NA,NA,NA,NA,"[]","large",1,"pos",1,35,5,5,5,5,5,1,"33130","27","male","man","","latino","","No","",""
"36","63254db937c17e8e9200fd54","svTrial","survey",44,577813,"0.0-2.0-42.0","65553732575bb29198a888d7","65566dc54b0751069c9b7586",4,"9418","Ishikawa_large_pos_1_0.jpg",NA,NA,NA,NA,NA,NA,NA,NA,NA,NA,NA,NA,NA,NA,NA,NA,"[]","middle",2,"sch",1,36,3,3,3,3,3,1,"33130","27","male","man","","latino","","No","",""
"37","63254db937c17e8e9200fd54","svTrial","survey",45,585394,"0.0-2.0-43.0","65553732575bb29198a888d7","65566dc54b0751069c9b7586",4,"7576","Okinawa_large_pos_6_3.jpg",NA,NA,NA,NA,NA,NA,NA,NA,NA,NA,NA,NA,NA,NA,NA,NA,"[]","middle",1,"pos",6,37,4,4,4,3,3,1,"33130","27","male","man","","latino","","No","",""
"38","63254db937c17e8e9200fd54","svTrial","survey",46,594587,"0.0-2.0-44.0","65553732575bb29198a888d7","65566dc54b0751069c9b7586",4,"9188","Ishikawa_small_pos_3_2.jpg",NA,NA,NA,NA,NA,NA,NA,NA,NA,NA,NA,NA,NA,NA,NA,NA,"[]","middle",2,"pos",3,38,3,3,3,2,2,1,"33130","27","male","man","","latino","","No","",""
"39","63254db937c17e8e9200fd54","svTrial","survey",48,619737,"0.0-2.0-46.0","65553732575bb29198a888d7","65566dc54b0751069c9b7586",4,"12769","Okinawa_middle_pos_2_3.jpg",NA,NA,NA,NA,NA,NA,NA,NA,NA,NA,NA,NA,NA,NA,NA,NA,"[]","small",1,"sch",2,39,3,3,3,1,1,1,"33130","27","male","man","","latino","","No","",""
"40","63254db937c17e8e9200fd54","svTrial","survey",49,633516,"0.0-2.0-47.0","65553732575bb29198a888d7","65566dc54b0751069c9b7586",4,"13774","Ishikawa_large_sch_9_2.jpg",NA,NA,NA,NA,NA,NA,NA,NA,NA,NA,NA,NA,NA,NA,NA,NA,"[]","large",2,"pos",9,40,5,5,5,5,5,1,"33130","27","male","man","","latino","","No","",""
"41","63254db937c17e8e9200fd54","svTrial","survey",50,653243,"0.0-2.0-48.0","65553732575bb29198a888d7","65566dc54b0751069c9b7586",4,"19723","Akita_large_sch_6_2.jpg",NA,NA,NA,NA,NA,NA,NA,NA,NA,NA,NA,NA,NA,NA,NA,NA,"[]","large",2,"sch",6,41,2,2,2,1,1,1,"33130","27","male","man","","latino","","No","",""
"42","63254db937c17e8e9200fd54","svTrial","survey",51,663013,"0.0-2.0-49.0","65553732575bb29198a888d7","65566dc54b0751069c9b7586",4,"9765","Kanagawa_large_sch_2_1.jpg",NA,NA,NA,NA,NA,NA,NA,NA,NA,NA,NA,NA,NA,NA,NA,NA,"[]","large",1,"pos",2,42,5,5,5,3,2,1,"33130","27","male","man","","latino","","No","",""
"43","63254db937c17e8e9200fd54","svTrial","survey",52,670356,"0.0-2.0-50.0","65553732575bb29198a888d7","65566dc54b0751069c9b7586",4,"7338","Ishikawa_middle_sch_2_0.jpg",NA,NA,NA,NA,NA,NA,NA,NA,NA,NA,NA,NA,NA,NA,NA,NA,"[]","middle",2,"pos",2,43,5,5,5,5,5,1,"33130","27","male","man","","latino","","No","",""
"44","63254db937c17e8e9200fd54","svTrial","survey",53,675840,"0.0-2.0-51.0","65553732575bb29198a888d7","65566dc54b0751069c9b7586",4,"5480","Kanagawa_small_sch_4_1.jpg",NA,NA,NA,NA,NA,NA,NA,NA,NA,NA,NA,NA,NA,NA,NA,NA,"[]","middle",1,"pos",4,44,5,5,5,5,5,1,"33130","27","male","man","","latino","","No","",""
"45","63254db937c17e8e9200fd54","svTrial","survey",54,681526,"0.0-2.0-52.0","65553732575bb29198a888d7","65566dc54b0751069c9b7586",4,"5680","Niigata_large_sch_5_3.jpg",NA,NA,NA,NA,NA,NA,NA,NA,NA,NA,NA,NA,NA,NA,NA,NA,"[]","small",2,"pos",5,45,5,5,5,5,5,1,"33130","27","male","man","","latino","","No","",""
"46","63254db937c17e8e9200fd54","svTrial","survey",55,689112,"0.0-2.0-53.0","65553732575bb29198a888d7","65566dc54b0751069c9b7586",4,"7582","Niigata_middle_pos_5_2.jpg",NA,NA,NA,NA,NA,NA,NA,NA,NA,NA,NA,NA,NA,NA,NA,NA,"[]","middle",2,"pos",5,46,3,3,3,2,3,1,"33130","27","male","man","","latino","","No","",""
"47","63254db937c17e8e9200fd54","svTrial","survey",56,699357,"0.0-2.0-54.0","65553732575bb29198a888d7","65566dc54b0751069c9b7586",4,"10241","Akita_small_sch_3_1.jpg",NA,NA,NA,NA,NA,NA,NA,NA,NA,NA,NA,NA,NA,NA,NA,NA,"[]","large",2,"pos",3,47,3,3,3,2,2,1,"33130","27","male","man","","latino","","No","",""
"48","63254db937c17e8e9200fd54","svTrial","survey",57,705059,"0.0-2.0-55.0","65553732575bb29198a888d7","65566dc54b0751069c9b7586",4,"5697","Tokyo_middle_sch_7_1.jpg",NA,NA,NA,NA,NA,NA,NA,NA,NA,NA,NA,NA,NA,NA,NA,NA,"[]","middle",1,"sch",7,48,4,4,4,3,3,1,"33130","27","male","man","","latino","","No","",""
