"","subject_id","task","trial_type","trial_index","time_elapsed","internal_node_id","study_id","session_id","group","rt","stimulus","width","height","webaudio","browser","browser_version","mobile","os","fullscreen","vsync_rate","webcam","microphone","success","timeout","failed_images","failed_audio","failed_video","accuracy","size","culture","loct","number","document.id","ambiguous","objects","invisible","chaos","complex","passedChecks","zipcode","age","sex","gender","gender-self-describe","ethnicity","ethnicity-self-describe","outsideUS","outsideUS_years","surveyComments"
"1","6365ab7c067ca5f4ae5bbd09","svTrial","survey",8,132939,"0.0-2.0-6.0","65553732575bb29198a888d7","65565d352e7f7d2b8ae2ae1d",4,"57399","Hokkaido_middle_pos_8_1.jpg",NA,NA,NA,NA,NA,NA,NA,NA,NA,NA,NA,NA,NA,NA,NA,NA,"[]","middle",1,"pos",8,1,4,5,4,3,4,1,"78239","22","male","man","","latino","","No","",""
"2","6365ab7c067ca5f4ae5bbd09","svTrial","survey",9,149871,"0.0-2.0-7.0","65553732575bb29198a888d7","65565d352e7f7d2b8ae2ae1d",4,"16920","Akita_small_sch_3_2.jpg",NA,NA,NA,NA,NA,NA,NA,NA,NA,NA,NA,NA,NA,NA,NA,NA,"[]","large",2,"pos",3,2,5,4,5,2,4,1,"78239","22","male","man","","latino","","No","",""
"3","6365ab7c067ca5f4ae5bbd09","svTrial","survey",10,171818,"0.0-2.0-8.0","65553732575bb29198a888d7","65565d352e7f7d2b8ae2ae1d",4,"21939","Ishikawa_middle_sch_2_1.jpg",NA,NA,NA,NA,NA,NA,NA,NA,NA,NA,NA,NA,NA,NA,NA,NA,"[]","middle",2,"pos",2,3,2,3,2,2,3,1,"78239","22","male","man","","latino","","No","",""
"4","6365ab7c067ca5f4ae5bbd09","svTrial","survey",11,185898,"0.0-2.0-9.0","65553732575bb29198a888d7","65565d352e7f7d2b8ae2ae1d",4,"14072","Ishikawa_large_pos_4_1.jpg",NA,NA,NA,NA,NA,NA,NA,NA,NA,NA,NA,NA,NA,NA,NA,NA,"[]","middle",2,"pos",4,4,1,1,1,1,1,1,"78239","22","male","man","","latino","","No","",""
"5","6365ab7c067ca5f4ae5bbd09","svTrial","survey",12,199233,"0.0-2.0-10.0","65553732575bb29198a888d7","65565d352e7f7d2b8ae2ae1d",4,"13327","Hokkaido_middle_sch_7_0.jpg",NA,NA,NA,NA,NA,NA,NA,NA,NA,NA,NA,NA,NA,NA,NA,NA,"[]","small",1,"pos",7,5,1,3,1,2,2,1,"78239","22","male","man","","latino","","No","",""
"6","6365ab7c067ca5f4ae5bbd09","svTrial","survey",13,213462,"0.0-2.0-11.0","65553732575bb29198a888d7","65565d352e7f7d2b8ae2ae1d",4,"14219","Tokyo_middle_sch_3_3.jpg",NA,NA,NA,NA,NA,NA,NA,NA,NA,NA,NA,NA,NA,NA,NA,NA,"[]","middle",1,"pos",3,6,1,3,1,1,2,1,"78239","22","male","man","","latino","","No","",""
"7","6365ab7c067ca5f4ae5bbd09","svTrial","survey",14,237965,"0.0-2.0-12.0","65553732575bb29198a888d7","65565d352e7f7d2b8ae2ae1d",4,"24494","Ishikawa_large_sch_12_1.jpg",NA,NA,NA,NA,NA,NA,NA,NA,NA,NA,NA,NA,NA,NA,NA,NA,"[]","middle",2,"pos",12,7,3,2,1,1,2,1,"78239","22","male","man","","latino","","No","",""
"8","6365ab7c067ca5f4ae5bbd09","svTrial","survey",15,287182,"0.0-2.0-13.0","65553732575bb29198a888d7","65565d352e7f7d2b8ae2ae1d",4,"49208","Okinawa_large_sch_7_2.jpg",NA,NA,NA,NA,NA,NA,NA,NA,NA,NA,NA,NA,NA,NA,NA,NA,"[]","small",1,"pos",7,8,5,4,3,5,5,1,"78239","22","male","man","","latino","","No","",""
"9","6365ab7c067ca5f4ae5bbd09","svTrial","survey",16,394325,"0.0-2.0-14.0","65553732575bb29198a888d7","65565d352e7f7d2b8ae2ae1d",4,"107132","Kanagawa_large_sch_9_1.jpg",NA,NA,NA,NA,NA,NA,NA,NA,NA,NA,NA,NA,NA,NA,NA,NA,"[]","large",1,"pos",9,9,2,2,1,1,1,1,"78239","22","male","man","","latino","","No","",""
"10","6365ab7c067ca5f4ae5bbd09","svTrial","survey",17,405405,"0.0-2.0-15.0","65553732575bb29198a888d7","65565d352e7f7d2b8ae2ae1d",4,"11070","Akita_large_sch_11_0.jpg",NA,NA,NA,NA,NA,NA,NA,NA,NA,NA,NA,NA,NA,NA,NA,NA,"[]","small",2,"sch",11,10,4,1,4,3,3,1,"78239","22","male","man","","latino","","No","",""
"11","6365ab7c067ca5f4ae5bbd09","svTrial","survey",18,1027908,"0.0-2.0-16.0","65553732575bb29198a888d7","65565d352e7f7d2b8ae2ae1d",4,"622497","Akita_large_sch_6_0.jpg",NA,NA,NA,NA,NA,NA,NA,NA,NA,NA,NA,NA,NA,NA,NA,NA,"[]","large",2,"sch",6,11,4,2,3,3,2,1,"78239","22","male","man","","latino","","No","",""
"12","6365ab7c067ca5f4ae5bbd09","svTrial","survey",19,1040680,"0.0-2.0-17.0","65553732575bb29198a888d7","65565d352e7f7d2b8ae2ae1d",4,"12762","Hokkaido_large_pos_1_1.jpg",NA,NA,NA,NA,NA,NA,NA,NA,NA,NA,NA,NA,NA,NA,NA,NA,"[]","large",1,"sch",1,12,1,1,1,1,2,1,"78239","22","male","man","","latino","","No","",""
"13","6365ab7c067ca5f4ae5bbd09","svTrial","survey",20,1051421,"0.0-2.0-18.0","65553732575bb29198a888d7","65565d352e7f7d2b8ae2ae1d",4,"10732","Niigata_large_pos_10_3.jpg",NA,NA,NA,NA,NA,NA,NA,NA,NA,NA,NA,NA,NA,NA,NA,NA,"[]","small",2,"pos",10,13,1,1,1,1,2,1,"78239","22","male","man","","latino","","No","",""
"14","6365ab7c067ca5f4ae5bbd09","svTrial","survey",21,1060764,"0.0-2.0-19.0","65553732575bb29198a888d7","65565d352e7f7d2b8ae2ae1d",4,"9336","Tokyo_large_sch_12_2.jpg",NA,NA,NA,NA,NA,NA,NA,NA,NA,NA,NA,NA,NA,NA,NA,NA,"[]","middle",1,"sch",12,14,4,4,3,5,4,1,"78239","22","male","man","","latino","","No","",""
"15","6365ab7c067ca5f4ae5bbd09","svTrial","survey",22,1066596,"0.0-2.0-20.0","65553732575bb29198a888d7","65565d352e7f7d2b8ae2ae1d",4,"5823","Ishikawa_large_pos_1_1.jpg",NA,NA,NA,NA,NA,NA,NA,NA,NA,NA,NA,NA,NA,NA,NA,NA,"[]","middle",2,"sch",1,15,1,1,1,1,1,1,"78239","22","male","man","","latino","","No","",""
"16","6365ab7c067ca5f4ae5bbd09","svTrial","survey",24,1080556,"0.0-2.0-22.0","65553732575bb29198a888d7","65565d352e7f7d2b8ae2ae1d",4,"8984","Kanagawa_middle_pos_3_0.jpg",NA,NA,NA,NA,NA,NA,NA,NA,NA,NA,NA,NA,NA,NA,NA,NA,"[]","large",1,"pos",3,16,1,1,1,2,2,1,"78239","22","male","man","","latino","","No","",""
"17","6365ab7c067ca5f4ae5bbd09","svTrial","survey",25,1090267,"0.0-2.0-23.0","65553732575bb29198a888d7","65565d352e7f7d2b8ae2ae1d",4,"9704","Okinawa_middle_pos_2_2.jpg",NA,NA,NA,NA,NA,NA,NA,NA,NA,NA,NA,NA,NA,NA,NA,NA,"[]","small",1,"sch",2,17,2,1,4,2,2,1,"78239","22","male","man","","latino","","No","",""
"18","6365ab7c067ca5f4ae5bbd09","svTrial","survey",26,1131173,"0.0-2.0-24.0","65553732575bb29198a888d7","65565d352e7f7d2b8ae2ae1d",4,"40899","Niigata_large_sch_5_2.jpg",NA,NA,NA,NA,NA,NA,NA,NA,NA,NA,NA,NA,NA,NA,NA,NA,"[]","small",2,"pos",5,18,1,1,2,3,3,1,"78239","22","male","man","","latino","","No","",""
"19","6365ab7c067ca5f4ae5bbd09","svTrial","survey",27,1138923,"0.0-2.0-25.0","65553732575bb29198a888d7","65565d352e7f7d2b8ae2ae1d",4,"7741","Okinawa_middle_sch_7_0.jpg",NA,NA,NA,NA,NA,NA,NA,NA,NA,NA,NA,NA,NA,NA,NA,NA,"[]","large",1,"pos",7,19,1,2,1,3,3,1,"78239","22","male","man","","latino","","No","",""
"20","6365ab7c067ca5f4ae5bbd09","svTrial","survey",28,1147812,"0.0-2.0-26.0","65553732575bb29198a888d7","65565d352e7f7d2b8ae2ae1d",4,"8881","Tokyo_large_pos_3_2.jpg",NA,NA,NA,NA,NA,NA,NA,NA,NA,NA,NA,NA,NA,NA,NA,NA,"[]","large",1,"sch",3,20,1,2,1,1,3,1,"78239","22","male","man","","latino","","No","",""
"21","6365ab7c067ca5f4ae5bbd09","svTrial","survey",29,1154885,"0.0-2.0-27.0","65553732575bb29198a888d7","65565d352e7f7d2b8ae2ae1d",4,"7065","Toyama_middle_sch_7_2.jpg",NA,NA,NA,NA,NA,NA,NA,NA,NA,NA,NA,NA,NA,NA,NA,NA,"[]","middle",2,"pos",7,21,1,1,1,2,3,1,"78239","22","male","man","","latino","","No","",""
"22","6365ab7c067ca5f4ae5bbd09","svTrial","survey",30,1165597,"0.0-2.0-28.0","65553732575bb29198a888d7","65565d352e7f7d2b8ae2ae1d",4,"10704","Ishikawa_small_pos_3_0.jpg",NA,NA,NA,NA,NA,NA,NA,NA,NA,NA,NA,NA,NA,NA,NA,NA,"[]","middle",2,"pos",3,22,3,3,2,3,4,1,"78239","22","male","man","","latino","","No","",""
"23","6365ab7c067ca5f4ae5bbd09","svTrial","survey",31,1255059,"0.0-2.0-29.0","65553732575bb29198a888d7","65565d352e7f7d2b8ae2ae1d",4,"89455","Akita_middle_sch_5_0.jpg",NA,NA,NA,NA,NA,NA,NA,NA,NA,NA,NA,NA,NA,NA,NA,NA,"[]","small",2,"pos",5,23,2,3,2,3,4,1,"78239","22","male","man","","latino","","No","",""
"24","6365ab7c067ca5f4ae5bbd09","svTrial","survey",32,1261797,"0.0-2.0-30.0","65553732575bb29198a888d7","65565d352e7f7d2b8ae2ae1d",4,"6730","Ishikawa_middle_sch_4_3.jpg",NA,NA,NA,NA,NA,NA,NA,NA,NA,NA,NA,NA,NA,NA,NA,NA,"[]","middle",2,"sch",4,24,1,1,1,2,1,1,"78239","22","male","man","","latino","","No","",""
"25","6365ab7c067ca5f4ae5bbd09","svTrial","survey",34,1277243,"0.0-2.0-32.0","65553732575bb29198a888d7","65565d352e7f7d2b8ae2ae1d",4,"10550","Kanagawa_middle_pos_5_3.jpg",NA,NA,NA,NA,NA,NA,NA,NA,NA,NA,NA,NA,NA,NA,NA,NA,"[]","large",1,"pos",5,25,1,3,1,2,4,1,"78239","22","male","man","","latino","","No","",""
"26","6365ab7c067ca5f4ae5bbd09","svTrial","survey",35,1287406,"0.0-2.0-33.0","65553732575bb29198a888d7","65565d352e7f7d2b8ae2ae1d",4,"10154","Tokyo_small_pos_1_3.jpg",NA,NA,NA,NA,NA,NA,NA,NA,NA,NA,NA,NA,NA,NA,NA,NA,"[]","large",1,"pos",1,26,3,2,4,3,5,1,"78239","22","male","man","","latino","","No","",""
"27","6365ab7c067ca5f4ae5bbd09","svTrial","survey",36,1296747,"0.0-2.0-34.0","65553732575bb29198a888d7","65565d352e7f7d2b8ae2ae1d",4,"9335","Akita_small_pos_4_3.jpg",NA,NA,NA,NA,NA,NA,NA,NA,NA,NA,NA,NA,NA,NA,NA,NA,"[]","small",2,"pos",4,27,1,2,1,2,1,1,"78239","22","male","man","","latino","","No","",""
"28","6365ab7c067ca5f4ae5bbd09","svTrial","survey",37,1304916,"0.0-2.0-35.0","65553732575bb29198a888d7","65565d352e7f7d2b8ae2ae1d",4,"8161","Ishikawa_middle_sch_1_2.jpg",NA,NA,NA,NA,NA,NA,NA,NA,NA,NA,NA,NA,NA,NA,NA,NA,"[]","small",2,"sch",1,28,1,1,1,2,1,1,"78239","22","male","man","","latino","","No","",""
"29","6365ab7c067ca5f4ae5bbd09","svTrial","survey",38,1319012,"0.0-2.0-36.0","65553732575bb29198a888d7","65565d352e7f7d2b8ae2ae1d",4,"14089","Kanagawa_middle_pos_8_0.jpg",NA,NA,NA,NA,NA,NA,NA,NA,NA,NA,NA,NA,NA,NA,NA,NA,"[]","middle",1,"sch",8,29,3,3,2,4,3,1,"78239","22","male","man","","latino","","No","",""
"30","6365ab7c067ca5f4ae5bbd09","svTrial","survey",39,1331285,"0.0-2.0-37.0","65553732575bb29198a888d7","65565d352e7f7d2b8ae2ae1d",4,"12264","Tokyo_middle_pos_8_0.jpg",NA,NA,NA,NA,NA,NA,NA,NA,NA,NA,NA,NA,NA,NA,NA,NA,"[]","large",1,"sch",8,30,3,4,2,3,4,1,"78239","22","male","man","","latino","","No","",""
"31","6365ab7c067ca5f4ae5bbd09","svTrial","survey",40,1341900,"0.0-2.0-38.0","65553732575bb29198a888d7","65565d352e7f7d2b8ae2ae1d",4,"10606","Kanagawa_large_sch_2_1.jpg",NA,NA,NA,NA,NA,NA,NA,NA,NA,NA,NA,NA,NA,NA,NA,NA,"[]","large",1,"pos",2,31,1,1,3,2,1,1,"78239","22","male","man","","latino","","No","",""
"32","6365ab7c067ca5f4ae5bbd09","svTrial","survey",41,1348619,"0.0-2.0-39.0","65553732575bb29198a888d7","65565d352e7f7d2b8ae2ae1d",4,"6712","Ishikawa_middle_sch_8_0.jpg",NA,NA,NA,NA,NA,NA,NA,NA,NA,NA,NA,NA,NA,NA,NA,NA,"[]","middle",2,"sch",8,32,1,1,1,1,1,1,"78239","22","male","man","","latino","","No","",""
"33","6365ab7c067ca5f4ae5bbd09","svTrial","survey",42,1359635,"0.0-2.0-40.0","65553732575bb29198a888d7","65565d352e7f7d2b8ae2ae1d",4,"11009","Tokyo_middle_sch_7_1.jpg",NA,NA,NA,NA,NA,NA,NA,NA,NA,NA,NA,NA,NA,NA,NA,NA,"[]","middle",1,"sch",7,33,1,4,1,1,3,1,"78239","22","male","man","","latino","","No","",""
"34","6365ab7c067ca5f4ae5bbd09","svTrial","survey",43,1643267,"0.0-2.0-41.0","65553732575bb29198a888d7","65565d352e7f7d2b8ae2ae1d",4,"283624","Okinawa_large_pos_8_0.jpg",NA,NA,NA,NA,NA,NA,NA,NA,NA,NA,NA,NA,NA,NA,NA,NA,"[]","middle",1,"pos",8,34,4,3,1,4,3,1,"78239","22","male","man","","latino","","No","",""
"35","6365ab7c067ca5f4ae5bbd09","svTrial","survey",44,1789937,"0.0-2.0-42.0","65553732575bb29198a888d7","65565d352e7f7d2b8ae2ae1d",4,"146662","Akita_large_sch_9_2.jpg",NA,NA,NA,NA,NA,NA,NA,NA,NA,NA,NA,NA,NA,NA,NA,NA,"[]","large",2,"pos",9,35,1,1,1,1,1,1,"78239","22","male","man","","latino","","No","",""
"36","6365ab7c067ca5f4ae5bbd09","svTrial","survey",45,1798954,"0.0-2.0-43.0","65553732575bb29198a888d7","65565d352e7f7d2b8ae2ae1d",4,"9010","Ishikawa_large_sch_9_2.jpg",NA,NA,NA,NA,NA,NA,NA,NA,NA,NA,NA,NA,NA,NA,NA,NA,"[]","large",2,"pos",9,36,2,2,1,2,1,1,"78239","22","male","man","","latino","","No","",""
"37","6365ab7c067ca5f4ae5bbd09","svTrial","survey",46,1807435,"0.0-2.0-44.0","65553732575bb29198a888d7","65565d352e7f7d2b8ae2ae1d",4,"8473","Okinawa_large_pos_6_3.jpg",NA,NA,NA,NA,NA,NA,NA,NA,NA,NA,NA,NA,NA,NA,NA,NA,"[]","middle",1,"pos",6,37,1,2,4,2,2,1,"78239","22","male","man","","latino","","No","",""
"38","6365ab7c067ca5f4ae5bbd09","svTrial","survey",47,2008718,"0.0-2.0-45.0","65553732575bb29198a888d7","65565d352e7f7d2b8ae2ae1d",4,"201276","Akita_large_pos_3_1.jpg",NA,NA,NA,NA,NA,NA,NA,NA,NA,NA,NA,NA,NA,NA,NA,NA,"[]","middle",2,"pos",3,38,2,3,1,2,4,1,"78239","22","male","man","","latino","","No","",""
"39","6365ab7c067ca5f4ae5bbd09","svTrial","survey",48,2017100,"0.0-2.0-46.0","65553732575bb29198a888d7","65565d352e7f7d2b8ae2ae1d",4,"8372","Tokyo_middle_pos_7_3.jpg",NA,NA,NA,NA,NA,NA,NA,NA,NA,NA,NA,NA,NA,NA,NA,NA,"[]","middle",1,"pos",7,39,2,1,4,3,2,1,"78239","22","male","man","","latino","","No","",""
"40","6365ab7c067ca5f4ae5bbd09","svTrial","survey",49,2025803,"0.0-2.0-47.0","65553732575bb29198a888d7","65565d352e7f7d2b8ae2ae1d",4,"8696","Kanagawa_large_pos_9_3.jpg",NA,NA,NA,NA,NA,NA,NA,NA,NA,NA,NA,NA,NA,NA,NA,NA,"[]","small",1,"pos",9,40,2,5,3,3,4,1,"78239","22","male","man","","latino","","No","",""
"41","6365ab7c067ca5f4ae5bbd09","svTrial","survey",50,2033259,"0.0-2.0-48.0","65553732575bb29198a888d7","65565d352e7f7d2b8ae2ae1d",4,"7448","Kanagawa_small_sch_4_3.jpg",NA,NA,NA,NA,NA,NA,NA,NA,NA,NA,NA,NA,NA,NA,NA,NA,"[]","middle",1,"pos",4,41,2,2,4,2,3,1,"78239","22","male","man","","latino","","No","",""
"42","6365ab7c067ca5f4ae5bbd09","svTrial","survey",51,2129349,"0.0-2.0-49.0","65553732575bb29198a888d7","65565d352e7f7d2b8ae2ae1d",4,"96083","Okinawa_small_pos_4_0.jpg",NA,NA,NA,NA,NA,NA,NA,NA,NA,NA,NA,NA,NA,NA,NA,NA,"[]","middle",1,"sch",4,42,3,5,2,3,5,1,"78239","22","male","man","","latino","","No","",""
"43","6365ab7c067ca5f4ae5bbd09","svTrial","survey",52,2148618,"0.0-2.0-50.0","65553732575bb29198a888d7","65565d352e7f7d2b8ae2ae1d",4,"19261","Toyama_small_pos_2_0.jpg",NA,NA,NA,NA,NA,NA,NA,NA,NA,NA,NA,NA,NA,NA,NA,NA,"[]","small",2,"sch",2,43,4,4,2,3,5,1,"78239","22","male","man","","latino","","No","",""
"44","6365ab7c067ca5f4ae5bbd09","svTrial","survey",53,2158178,"0.0-2.0-51.0","65553732575bb29198a888d7","65565d352e7f7d2b8ae2ae1d",4,"9553","Niigata_middle_pos_5_1.jpg",NA,NA,NA,NA,NA,NA,NA,NA,NA,NA,NA,NA,NA,NA,NA,NA,"[]","middle",2,"pos",5,44,1,2,1,1,2,1,"78239","22","male","man","","latino","","No","",""
"45","6365ab7c067ca5f4ae5bbd09","svTrial","survey",54,2167690,"0.0-2.0-52.0","65553732575bb29198a888d7","65565d352e7f7d2b8ae2ae1d",4,"9504","Tokyo_small_pos_4_0.jpg",NA,NA,NA,NA,NA,NA,NA,NA,NA,NA,NA,NA,NA,NA,NA,NA,"[]","large",1,"sch",4,45,1,3,1,2,4,1,"78239","22","male","man","","latino","","No","",""
"46","6365ab7c067ca5f4ae5bbd09","svTrial","survey",55,2248447,"0.0-2.0-53.0","65553732575bb29198a888d7","65565d352e7f7d2b8ae2ae1d",4,"80751","Ishikawa_large_sch_2_0.jpg",NA,NA,NA,NA,NA,NA,NA,NA,NA,NA,NA,NA,NA,NA,NA,NA,"[]","middle",2,"sch",2,46,1,4,1,3,3,1,"78239","22","male","man","","latino","","No","",""
"47","6365ab7c067ca5f4ae5bbd09","svTrial","survey",56,2257079,"0.0-2.0-54.0","65553732575bb29198a888d7","65565d352e7f7d2b8ae2ae1d",4,"8623","Toyama_middle_sch_3_3.jpg",NA,NA,NA,NA,NA,NA,NA,NA,NA,NA,NA,NA,NA,NA,NA,NA,"[]","large",2,"sch",3,47,1,2,1,2,2,1,"78239","22","male","man","","latino","","No","",""
"48","6365ab7c067ca5f4ae5bbd09","svTrial","survey",57,2262874,"0.0-2.0-55.0","65553732575bb29198a888d7","65565d352e7f7d2b8ae2ae1d",4,"5788","Ishikawa_middle_sch_5_3.jpg",NA,NA,NA,NA,NA,NA,NA,NA,NA,NA,NA,NA,NA,NA,NA,NA,"[]","small",2,"sch",5,48,1,1,1,1,2,1,"78239","22","male","man","","latino","","No","",""
