"","subject_id","task","trial_type","trial_index","time_elapsed","internal_node_id","study_id","session_id","group","rt","stimulus","width","height","webaudio","browser","browser_version","mobile","os","fullscreen","vsync_rate","webcam","microphone","success","timeout","failed_images","failed_audio","failed_video","accuracy","size","culture","loct","number","document.id","ambiguous","objects","invisible","chaos","complex","passedChecks","zipcode","age","sex","gender","gender-self-describe","ethnicity","ethnicity-self-describe","outsideUS","outsideUS_years","surveyComments"
"1","63becfe5105f9498a29733e7","svTrial","survey",8,28116,"0.0-2.0-6.0","65553732575bb29198a888d7","65564f8f376fbcef59de19f6",3,"11440","Kanagawa_middle_sch_2_1.jpg",NA,NA,NA,NA,NA,NA,NA,NA,NA,NA,NA,NA,NA,NA,NA,NA,"[]","large",1,"sch",2,1,4,3,4,3,3,1,"32080","20","female","woman","","caucasian","","No","",""
"2","63becfe5105f9498a29733e7","svTrial","survey",9,32651,"0.0-2.0-7.0","65553732575bb29198a888d7","65564f8f376fbcef59de19f6",3,"4516","Kanagawa_middle_pos_6_2.jpg",NA,NA,NA,NA,NA,NA,NA,NA,NA,NA,NA,NA,NA,NA,NA,NA,"[]","large",1,"sch",6,2,4,3,4,4,2,1,"32080","20","female","woman","","caucasian","","No","",""
"3","63becfe5105f9498a29733e7","svTrial","survey",10,37526,"0.0-2.0-8.0","65553732575bb29198a888d7","65564f8f376fbcef59de19f6",3,"4858","Niigata_small_pos_1_1.jpg",NA,NA,NA,NA,NA,NA,NA,NA,NA,NA,NA,NA,NA,NA,NA,NA,"[]","small",2,"pos",1,3,3,5,4,3,3,1,"32080","20","female","woman","","caucasian","","No","",""
"4","63becfe5105f9498a29733e7","svTrial","survey",11,42292,"0.0-2.0-9.0","65553732575bb29198a888d7","65564f8f376fbcef59de19f6",3,"4747","Okinawa_middle_pos_6_2.jpg",NA,NA,NA,NA,NA,NA,NA,NA,NA,NA,NA,NA,NA,NA,NA,NA,"[]","large",1,"pos",6,4,2,2,4,3,3,1,"32080","20","female","woman","","caucasian","","No","",""
"5","63becfe5105f9498a29733e7","svTrial","survey",12,46635,"0.0-2.0-10.0","65553732575bb29198a888d7","65564f8f376fbcef59de19f6",3,"4322","Okinawa_large_pos_1_2.jpg",NA,NA,NA,NA,NA,NA,NA,NA,NA,NA,NA,NA,NA,NA,NA,NA,"[]","large",1,"sch",1,5,2,4,2,2,3,1,"32080","20","female","woman","","caucasian","","No","",""
"6","63becfe5105f9498a29733e7","svTrial","survey",13,50609,"0.0-2.0-11.0","65553732575bb29198a888d7","65564f8f376fbcef59de19f6",3,"3956","Okinawa_small_pos_3_1.jpg",NA,NA,NA,NA,NA,NA,NA,NA,NA,NA,NA,NA,NA,NA,NA,NA,"[]","large",1,"pos",3,6,4,3,3,3,3,1,"32080","20","female","woman","","caucasian","","No","",""
"7","63becfe5105f9498a29733e7","svTrial","survey",14,56400,"0.0-2.0-12.0","65553732575bb29198a888d7","65564f8f376fbcef59de19f6",3,"5774","Hokkaido_large_pos_4_1.jpg",NA,NA,NA,NA,NA,NA,NA,NA,NA,NA,NA,NA,NA,NA,NA,NA,"[]","middle",1,"sch",4,7,1,3,3,2,2,1,"32080","20","female","woman","","caucasian","","No","",""
"8","63becfe5105f9498a29733e7","svTrial","survey",15,61022,"0.0-2.0-13.0","65553732575bb29198a888d7","65564f8f376fbcef59de19f6",3,"4605","Akita_small_sch_1_3.jpg",NA,NA,NA,NA,NA,NA,NA,NA,NA,NA,NA,NA,NA,NA,NA,NA,"[]","middle",2,"sch",1,8,3,4,2,2,3,1,"32080","20","female","woman","","caucasian","","No","",""
"9","63becfe5105f9498a29733e7","svTrial","survey",16,65008,"0.0-2.0-14.0","65553732575bb29198a888d7","65564f8f376fbcef59de19f6",3,"3971","Hokkaido_middle_pos_1_0.jpg",NA,NA,NA,NA,NA,NA,NA,NA,NA,NA,NA,NA,NA,NA,NA,NA,"[]","small",1,"sch",1,9,3,2,2,2,3,1,"32080","20","female","woman","","caucasian","","No","",""
"10","63becfe5105f9498a29733e7","svTrial","survey",17,69544,"0.0-2.0-15.0","65553732575bb29198a888d7","65564f8f376fbcef59de19f6",3,"4522","Hokkaido_large_sch_11_3.jpg",NA,NA,NA,NA,NA,NA,NA,NA,NA,NA,NA,NA,NA,NA,NA,NA,"[]","large",1,"sch",11,10,2,4,2,2,3,1,"32080","20","female","woman","","caucasian","","No","",""
"11","63becfe5105f9498a29733e7","svTrial","survey",18,73749,"0.0-2.0-16.0","65553732575bb29198a888d7","65564f8f376fbcef59de19f6",3,"4187","Ishikawa_large_pos_7_1.jpg",NA,NA,NA,NA,NA,NA,NA,NA,NA,NA,NA,NA,NA,NA,NA,NA,"[]","large",2,"sch",7,11,3,4,4,2,3,1,"32080","20","female","woman","","caucasian","","No","",""
"12","63becfe5105f9498a29733e7","svTrial","survey",19,81156,"0.0-2.0-17.0","65553732575bb29198a888d7","65564f8f376fbcef59de19f6",3,"7390","Ishikawa_large_pos_6_0.jpg",NA,NA,NA,NA,NA,NA,NA,NA,NA,NA,NA,NA,NA,NA,NA,NA,"[]","middle",2,"pos",6,12,3,4,2,2,3,1,"32080","20","female","woman","","caucasian","","No","",""
"13","63becfe5105f9498a29733e7","svTrial","survey",20,85493,"0.0-2.0-18.0","65553732575bb29198a888d7","65564f8f376fbcef59de19f6",3,"4323","Akita_large_pos_9_0.jpg",NA,NA,NA,NA,NA,NA,NA,NA,NA,NA,NA,NA,NA,NA,NA,NA,"[]","small",2,"pos",9,13,3,4,3,2,3,1,"32080","20","female","woman","","caucasian","","No","",""
"14","63becfe5105f9498a29733e7","svTrial","survey",21,90939,"0.0-2.0-19.0","65553732575bb29198a888d7","65564f8f376fbcef59de19f6",3,"5431","Toyama_large_sch_4_3.jpg",NA,NA,NA,NA,NA,NA,NA,NA,NA,NA,NA,NA,NA,NA,NA,NA,"[]","small",2,"sch",4,14,2,5,3,3,3,1,"32080","20","female","woman","","caucasian","","No","",""
"15","63becfe5105f9498a29733e7","svTrial","survey",22,96222,"0.0-2.0-20.0","65553732575bb29198a888d7","65564f8f376fbcef59de19f6",3,"5270","Toyama_large_pos_12_1.jpg",NA,NA,NA,NA,NA,NA,NA,NA,NA,NA,NA,NA,NA,NA,NA,NA,"[]","large",2,"sch",12,15,3,3,1,2,2,1,"32080","20","female","woman","","caucasian","","No","",""
"16","63becfe5105f9498a29733e7","svTrial","survey",23,100910,"0.0-2.0-21.0","65553732575bb29198a888d7","65564f8f376fbcef59de19f6",3,"4675","Toyama_middle_pos_1_1.jpg",NA,NA,NA,NA,NA,NA,NA,NA,NA,NA,NA,NA,NA,NA,NA,NA,"[]","middle",2,"pos",1,16,3,2,2,2,3,1,"32080","20","female","woman","","caucasian","","No","",""
"17","63becfe5105f9498a29733e7","svTrial","survey",24,104815,"0.0-2.0-22.0","65553732575bb29198a888d7","65564f8f376fbcef59de19f6",3,"3883","Toyama_small_sch_3_1.jpg",NA,NA,NA,NA,NA,NA,NA,NA,NA,NA,NA,NA,NA,NA,NA,NA,"[]","large",2,"pos",3,17,3,3,1,2,4,1,"32080","20","female","woman","","caucasian","","No","",""
"18","63becfe5105f9498a29733e7","svTrial","survey",25,110082,"0.0-2.0-23.0","65553732575bb29198a888d7","65564f8f376fbcef59de19f6",3,"5248","Hokkaido_middle_sch_2_0.jpg",NA,NA,NA,NA,NA,NA,NA,NA,NA,NA,NA,NA,NA,NA,NA,NA,"[]","small",1,"pos",2,18,3,2,1,1,1,1,"32080","20","female","woman","","caucasian","","No","",""
"19","63becfe5105f9498a29733e7","svTrial","survey",27,119256,"0.0-2.0-25.0","65553732575bb29198a888d7","65564f8f376fbcef59de19f6",3,"5207","Niigata_large_sch_3_1.jpg",NA,NA,NA,NA,NA,NA,NA,NA,NA,NA,NA,NA,NA,NA,NA,NA,"[]","large",2,"sch",3,19,3,4,2,2,2,1,"32080","20","female","woman","","caucasian","","No","",""
"20","63becfe5105f9498a29733e7","svTrial","survey",28,124082,"0.0-2.0-26.0","65553732575bb29198a888d7","65564f8f376fbcef59de19f6",3,"4813","Hokkaido_large_sch_4_3.jpg",NA,NA,NA,NA,NA,NA,NA,NA,NA,NA,NA,NA,NA,NA,NA,NA,"[]","small",1,"sch",4,20,2,4,2,1,2,1,"32080","20","female","woman","","caucasian","","No","",""
"21","63becfe5105f9498a29733e7","svTrial","survey",29,127688,"0.0-2.0-27.0","65553732575bb29198a888d7","65564f8f376fbcef59de19f6",3,"3591","Kanagawa_middle_pos_2_3.jpg",NA,NA,NA,NA,NA,NA,NA,NA,NA,NA,NA,NA,NA,NA,NA,NA,"[]","small",1,"pos",2,21,2,3,3,2,2,1,"32080","20","female","woman","","caucasian","","No","",""
"22","63becfe5105f9498a29733e7","svTrial","survey",30,132458,"0.0-2.0-28.0","65553732575bb29198a888d7","65564f8f376fbcef59de19f6",3,"4747","Toyama_large_sch_8_0.jpg",NA,NA,NA,NA,NA,NA,NA,NA,NA,NA,NA,NA,NA,NA,NA,NA,"[]","small",2,"pos",8,22,2,2,3,3,2,1,"32080","20","female","woman","","caucasian","","No","",""
"23","63becfe5105f9498a29733e7","svTrial","survey",31,137049,"0.0-2.0-29.0","65553732575bb29198a888d7","65564f8f376fbcef59de19f6",3,"4572","Okinawa_large_sch_2_3.jpg",NA,NA,NA,NA,NA,NA,NA,NA,NA,NA,NA,NA,NA,NA,NA,NA,"[]","small",1,"sch",2,23,1,2,2,1,3,1,"32080","20","female","woman","","caucasian","","No","",""
"24","63becfe5105f9498a29733e7","svTrial","survey",32,142193,"0.0-2.0-30.0","65553732575bb29198a888d7","65564f8f376fbcef59de19f6",3,"5126","Kanagawa_middle_sch_1_0.jpg",NA,NA,NA,NA,NA,NA,NA,NA,NA,NA,NA,NA,NA,NA,NA,NA,"[]","small",1,"sch",1,24,2,3,2,2,2,1,"32080","20","female","woman","","caucasian","","No","",""
"25","63becfe5105f9498a29733e7","svTrial","survey",34,153551,"0.0-2.0-32.0","65553732575bb29198a888d7","65564f8f376fbcef59de19f6",3,"5372","Niigata_large_pos_4_3.jpg",NA,NA,NA,NA,NA,NA,NA,NA,NA,NA,NA,NA,NA,NA,NA,NA,"[]","middle",2,"pos",4,25,2,4,3,2,2,1,"32080","20","female","woman","","caucasian","","No","",""
"26","63becfe5105f9498a29733e7","svTrial","survey",35,157858,"0.0-2.0-33.0","65553732575bb29198a888d7","65564f8f376fbcef59de19f6",3,"4293","Kanagawa_large_pos_4_2.jpg",NA,NA,NA,NA,NA,NA,NA,NA,NA,NA,NA,NA,NA,NA,NA,NA,"[]","small",1,"pos",4,26,2,3,3,2,2,1,"32080","20","female","woman","","caucasian","","No","",""
"27","63becfe5105f9498a29733e7","svTrial","survey",36,162343,"0.0-2.0-34.0","65553732575bb29198a888d7","65564f8f376fbcef59de19f6",3,"4471","Hokkaido_middle_sch_1_2.jpg",NA,NA,NA,NA,NA,NA,NA,NA,NA,NA,NA,NA,NA,NA,NA,NA,"[]","small",1,"sch",1,27,2,3,4,3,3,1,"32080","20","female","woman","","caucasian","","No","",""
"28","63becfe5105f9498a29733e7","svTrial","survey",37,166449,"0.0-2.0-35.0","65553732575bb29198a888d7","65564f8f376fbcef59de19f6",3,"4086","Akita_large_sch_10_1.jpg",NA,NA,NA,NA,NA,NA,NA,NA,NA,NA,NA,NA,NA,NA,NA,NA,"[]","small",2,"pos",10,28,3,2,3,3,2,1,"32080","20","female","woman","","caucasian","","No","",""
"29","63becfe5105f9498a29733e7","svTrial","survey",38,171085,"0.0-2.0-36.0","65553732575bb29198a888d7","65564f8f376fbcef59de19f6",3,"4619","Ishikawa_large_sch_6_2.jpg",NA,NA,NA,NA,NA,NA,NA,NA,NA,NA,NA,NA,NA,NA,NA,NA,"[]","small",2,"sch",6,29,2,3,2,2,2,1,"32080","20","female","woman","","caucasian","","No","",""
"30","63becfe5105f9498a29733e7","svTrial","survey",39,175167,"0.0-2.0-37.0","65553732575bb29198a888d7","65564f8f376fbcef59de19f6",3,"4070","Tokyo_small_sch_4_0.jpg",NA,NA,NA,NA,NA,NA,NA,NA,NA,NA,NA,NA,NA,NA,NA,NA,"[]","large",1,"pos",4,30,2,3,2,2,3,1,"32080","20","female","woman","","caucasian","","No","",""
"31","63becfe5105f9498a29733e7","svTrial","survey",40,181559,"0.0-2.0-38.0","65553732575bb29198a888d7","65564f8f376fbcef59de19f6",3,"6379","Ishikawa_large_pos_3_1.jpg",NA,NA,NA,NA,NA,NA,NA,NA,NA,NA,NA,NA,NA,NA,NA,NA,"[]","large",2,"pos",3,31,2,1,2,2,2,1,"32080","20","female","woman","","caucasian","","No","",""
"32","63becfe5105f9498a29733e7","svTrial","survey",41,187093,"0.0-2.0-39.0","65553732575bb29198a888d7","65564f8f376fbcef59de19f6",3,"5521","Kanagawa_large_pos_7_3.jpg",NA,NA,NA,NA,NA,NA,NA,NA,NA,NA,NA,NA,NA,NA,NA,NA,"[]","small",1,"pos",7,32,2,4,4,3,3,1,"32080","20","female","woman","","caucasian","","No","",""
"33","63becfe5105f9498a29733e7","svTrial","survey",42,192341,"0.0-2.0-40.0","65553732575bb29198a888d7","65564f8f376fbcef59de19f6",3,"5234","Tokyo_middle_pos_5_2.jpg",NA,NA,NA,NA,NA,NA,NA,NA,NA,NA,NA,NA,NA,NA,NA,NA,"[]","small",1,"sch",5,33,3,3,2,3,2,1,"32080","20","female","woman","","caucasian","","No","",""
"34","63becfe5105f9498a29733e7","svTrial","survey",43,198399,"0.0-2.0-41.0","65553732575bb29198a888d7","65564f8f376fbcef59de19f6",3,"6037","Toyama_large_pos_5_3.jpg",NA,NA,NA,NA,NA,NA,NA,NA,NA,NA,NA,NA,NA,NA,NA,NA,"[]","small",2,"pos",5,34,3,3,2,2,2,1,"32080","20","female","woman","","caucasian","","No","",""
"35","63becfe5105f9498a29733e7","svTrial","survey",44,202034,"0.0-2.0-42.0","65553732575bb29198a888d7","65564f8f376fbcef59de19f6",3,"3618","Niigata_middle_pos_1_2.jpg",NA,NA,NA,NA,NA,NA,NA,NA,NA,NA,NA,NA,NA,NA,NA,NA,"[]","middle",2,"pos",1,35,2,3,4,2,3,1,"32080","20","female","woman","","caucasian","","No","",""
"36","63becfe5105f9498a29733e7","svTrial","survey",45,207086,"0.0-2.0-43.0","65553732575bb29198a888d7","65564f8f376fbcef59de19f6",3,"5039","Okinawa_middle_pos_4_1.jpg",NA,NA,NA,NA,NA,NA,NA,NA,NA,NA,NA,NA,NA,NA,NA,NA,"[]","small",1,"sch",4,36,2,2,3,2,2,1,"32080","20","female","woman","","caucasian","","No","",""
"37","63becfe5105f9498a29733e7","svTrial","survey",46,213851,"0.0-2.0-44.0","65553732575bb29198a888d7","65564f8f376fbcef59de19f6",3,"6753","Hokkaido_middle_sch_6_0.jpg",NA,NA,NA,NA,NA,NA,NA,NA,NA,NA,NA,NA,NA,NA,NA,NA,"[]","small",1,"sch",6,37,3,3,2,2,3,1,"32080","20","female","woman","","caucasian","","No","",""
"38","63becfe5105f9498a29733e7","svTrial","survey",47,218634,"0.0-2.0-45.0","65553732575bb29198a888d7","65564f8f376fbcef59de19f6",3,"4770","Niigata_large_pos_9_1.jpg",NA,NA,NA,NA,NA,NA,NA,NA,NA,NA,NA,NA,NA,NA,NA,NA,"[]","small",2,"sch",9,38,2,4,2,2,2,1,"32080","20","female","woman","","caucasian","","No","",""
"39","63becfe5105f9498a29733e7","svTrial","survey",48,223222,"0.0-2.0-46.0","65553732575bb29198a888d7","65564f8f376fbcef59de19f6",3,"4577","Ishikawa_middle_pos_6_3.jpg",NA,NA,NA,NA,NA,NA,NA,NA,NA,NA,NA,NA,NA,NA,NA,NA,"[]","middle",2,"pos",6,39,2,2,3,2,2,1,"32080","20","female","woman","","caucasian","","No","",""
"40","63becfe5105f9498a29733e7","svTrial","survey",49,228038,"0.0-2.0-47.0","65553732575bb29198a888d7","65564f8f376fbcef59de19f6",3,"4803","Hokkaido_large_sch_3_0.jpg",NA,NA,NA,NA,NA,NA,NA,NA,NA,NA,NA,NA,NA,NA,NA,NA,"[]","small",1,"sch",3,40,1,2,3,2,2,1,"32080","20","female","woman","","caucasian","","No","",""
"41","63becfe5105f9498a29733e7","svTrial","survey",50,232551,"0.0-2.0-48.0","65553732575bb29198a888d7","65564f8f376fbcef59de19f6",3,"4500","Tokyo_small_sch_1_3.jpg",NA,NA,NA,NA,NA,NA,NA,NA,NA,NA,NA,NA,NA,NA,NA,NA,"[]","small",1,"sch",1,41,2,3,2,3,2,1,"32080","20","female","woman","","caucasian","","No","",""
"42","63becfe5105f9498a29733e7","svTrial","survey",51,237035,"0.0-2.0-49.0","65553732575bb29198a888d7","65564f8f376fbcef59de19f6",3,"4471","Akita_large_sch_7_2.jpg",NA,NA,NA,NA,NA,NA,NA,NA,NA,NA,NA,NA,NA,NA,NA,NA,"[]","large",2,"sch",7,42,2,3,2,2,3,1,"32080","20","female","woman","","caucasian","","No","",""
"43","63becfe5105f9498a29733e7","svTrial","survey",52,241439,"0.0-2.0-50.0","65553732575bb29198a888d7","65564f8f376fbcef59de19f6",3,"4389","Kanagawa_small_pos_1_3.jpg",NA,NA,NA,NA,NA,NA,NA,NA,NA,NA,NA,NA,NA,NA,NA,NA,"[]","middle",1,"sch",1,43,2,3,3,2,3,1,"32080","20","female","woman","","caucasian","","No","",""
"44","63becfe5105f9498a29733e7","svTrial","survey",53,247531,"0.0-2.0-51.0","65553732575bb29198a888d7","65564f8f376fbcef59de19f6",3,"6071","Akita_large_sch_1_2.jpg",NA,NA,NA,NA,NA,NA,NA,NA,NA,NA,NA,NA,NA,NA,NA,NA,"[]","small",2,"pos",1,44,2,2,3,3,2,1,"32080","20","female","woman","","caucasian","","No","",""
"45","63becfe5105f9498a29733e7","svTrial","survey",54,251612,"0.0-2.0-52.0","65553732575bb29198a888d7","65564f8f376fbcef59de19f6",3,"4065","Ishikawa_large_pos_5_1.jpg",NA,NA,NA,NA,NA,NA,NA,NA,NA,NA,NA,NA,NA,NA,NA,NA,"[]","large",2,"pos",5,45,2,3,2,2,1,1,"32080","20","female","woman","","caucasian","","No","",""
"46","63becfe5105f9498a29733e7","svTrial","survey",55,256447,"0.0-2.0-53.0","65553732575bb29198a888d7","65564f8f376fbcef59de19f6",3,"4823","Akita_middle_sch_6_3.jpg",NA,NA,NA,NA,NA,NA,NA,NA,NA,NA,NA,NA,NA,NA,NA,NA,"[]","small",2,"sch",6,46,2,2,2,2,2,1,"32080","20","female","woman","","caucasian","","No","",""
"47","63becfe5105f9498a29733e7","svTrial","survey",56,261404,"0.0-2.0-54.0","65553732575bb29198a888d7","65564f8f376fbcef59de19f6",3,"4944","Kanagawa_large_sch_11_3.jpg",NA,NA,NA,NA,NA,NA,NA,NA,NA,NA,NA,NA,NA,NA,NA,NA,"[]","large",1,"sch",11,47,2,3,2,2,3,1,"32080","20","female","woman","","caucasian","","No","",""
"48","63becfe5105f9498a29733e7","svTrial","survey",57,267037,"0.0-2.0-55.0","65553732575bb29198a888d7","65564f8f376fbcef59de19f6",3,"5620","Niigata_middle_pos_7_3.jpg",NA,NA,NA,NA,NA,NA,NA,NA,NA,NA,NA,NA,NA,NA,NA,NA,"[]","large",2,"sch",7,48,3,3,4,2,3,1,"32080","20","female","woman","","caucasian","","No","",""
