"","subject_id","task","trial_type","trial_index","time_elapsed","internal_node_id","study_id","session_id","group","rt","stimulus","width","height","webaudio","browser","browser_version","mobile","os","fullscreen","vsync_rate","webcam","microphone","success","timeout","failed_images","failed_audio","failed_video","accuracy","size","culture","loct","number","document.id","ambiguous","objects","invisible","chaos","complex","passedChecks","zipcode","age","sex","gender","gender-self-describe","ethnicity","ethnicity-self-describe","outsideUS","outsideUS_years","surveyComments"
"1","63d3f9666978779139a949bb","svTrial","survey",8,63253,"0.0-2.0-6.0","65553732575bb29198a888d7","65565bf29085949a259cbd7f",7,"22255","Toyama_middle_sch_2_3.jpg",NA,NA,NA,NA,NA,NA,NA,NA,NA,NA,NA,NA,NA,NA,NA,NA,"[]","large",2,"pos",2,1,2,2,4,2,1,1,"24015","31","male","man","","caucasian","","Yes","1",""
"2","63d3f9666978779139a949bb","svTrial","survey",9,88744,"0.0-2.0-7.0","65553732575bb29198a888d7","65565bf29085949a259cbd7f",7,"25482","Toyama_large_sch_7_0.jpg",NA,NA,NA,NA,NA,NA,NA,NA,NA,NA,NA,NA,NA,NA,NA,NA,"[]","small",2,"sch",7,2,3,2,4,2,2,1,"24015","31","male","man","","caucasian","","Yes","1",""
"3","63d3f9666978779139a949bb","svTrial","survey",10,107970,"0.0-2.0-8.0","65553732575bb29198a888d7","65565bf29085949a259cbd7f",7,"19220","Niigata_large_sch_12_3.jpg",NA,NA,NA,NA,NA,NA,NA,NA,NA,NA,NA,NA,NA,NA,NA,NA,"[]","middle",2,"sch",12,3,2,1,2,2,1,1,"24015","31","male","man","","caucasian","","Yes","1",""
"4","63d3f9666978779139a949bb","svTrial","survey",11,123304,"0.0-2.0-9.0","65553732575bb29198a888d7","65565bf29085949a259cbd7f",7,"15328","Kanagawa_large_sch_1_3.jpg",NA,NA,NA,NA,NA,NA,NA,NA,NA,NA,NA,NA,NA,NA,NA,NA,"[]","middle",1,"sch",1,4,1,2,5,1,1,1,"24015","31","male","man","","caucasian","","Yes","1",""
"5","63d3f9666978779139a949bb","svTrial","survey",12,141531,"0.0-2.0-10.0","65553732575bb29198a888d7","65565bf29085949a259cbd7f",7,"18221","Okinawa_middle_sch_8_1.jpg",NA,NA,NA,NA,NA,NA,NA,NA,NA,NA,NA,NA,NA,NA,NA,NA,"[]","large",1,"sch",8,5,3,2,4,2,2,1,"24015","31","male","man","","caucasian","","Yes","1",""
"6","63d3f9666978779139a949bb","svTrial","survey",13,154355,"0.0-2.0-11.0","65553732575bb29198a888d7","65565bf29085949a259cbd7f",7,"12818","Hokkaido_middle_pos_5_1.jpg",NA,NA,NA,NA,NA,NA,NA,NA,NA,NA,NA,NA,NA,NA,NA,NA,"[]","middle",1,"pos",5,6,2,4,4,2,3,1,"24015","31","male","man","","caucasian","","Yes","1",""
"7","63d3f9666978779139a949bb","svTrial","survey",14,166098,"0.0-2.0-12.0","65553732575bb29198a888d7","65565bf29085949a259cbd7f",7,"11739","Okinawa_middle_sch_6_1.jpg",NA,NA,NA,NA,NA,NA,NA,NA,NA,NA,NA,NA,NA,NA,NA,NA,"[]","small",1,"sch",6,7,1,3,1,1,2,1,"24015","31","male","man","","caucasian","","Yes","1",""
"8","63d3f9666978779139a949bb","svTrial","survey",15,180278,"0.0-2.0-13.0","65553732575bb29198a888d7","65565bf29085949a259cbd7f",7,"14175","Akita_middle_pos_8_1.jpg",NA,NA,NA,NA,NA,NA,NA,NA,NA,NA,NA,NA,NA,NA,NA,NA,"[]","small",2,"sch",8,8,4,3,3,3,3,1,"24015","31","male","man","","caucasian","","Yes","1",""
"9","63d3f9666978779139a949bb","svTrial","survey",16,193968,"0.0-2.0-14.0","65553732575bb29198a888d7","65565bf29085949a259cbd7f",7,"13685","Tokyo_large_pos_10_1.jpg",NA,NA,NA,NA,NA,NA,NA,NA,NA,NA,NA,NA,NA,NA,NA,NA,"[]","large",1,"sch",10,9,2,2,1,2,1,1,"24015","31","male","man","","caucasian","","Yes","1",""
"10","63d3f9666978779139a949bb","svTrial","survey",17,208172,"0.0-2.0-15.0","65553732575bb29198a888d7","65565bf29085949a259cbd7f",7,"14200","Kanagawa_middle_sch_4_2.jpg",NA,NA,NA,NA,NA,NA,NA,NA,NA,NA,NA,NA,NA,NA,NA,NA,"[]","middle",1,"sch",4,10,2,2,4,2,2,1,"24015","31","male","man","","caucasian","","Yes","1",""
"11","63d3f9666978779139a949bb","svTrial","survey",18,223000,"0.0-2.0-16.0","65553732575bb29198a888d7","65565bf29085949a259cbd7f",7,"14824","Hokkaido_large_sch_9_1.jpg",NA,NA,NA,NA,NA,NA,NA,NA,NA,NA,NA,NA,NA,NA,NA,NA,"[]","large",1,"sch",9,11,2,3,2,3,2,1,"24015","31","male","man","","caucasian","","Yes","1",""
"12","63d3f9666978779139a949bb","svTrial","survey",19,235257,"0.0-2.0-17.0","65553732575bb29198a888d7","65565bf29085949a259cbd7f",7,"12252","Hokkaido_middle_sch_8_0.jpg",NA,NA,NA,NA,NA,NA,NA,NA,NA,NA,NA,NA,NA,NA,NA,NA,"[]","large",1,"pos",8,12,1,1,1,1,1,1,"24015","31","male","man","","caucasian","","Yes","1",""
"13","63d3f9666978779139a949bb","svTrial","survey",20,242671,"0.0-2.0-18.0","65553732575bb29198a888d7","65565bf29085949a259cbd7f",7,"7409","Niigata_small_sch_2_0.jpg",NA,NA,NA,NA,NA,NA,NA,NA,NA,NA,NA,NA,NA,NA,NA,NA,"[]","small",2,"sch",2,13,1,1,1,1,1,1,"24015","31","male","man","","caucasian","","Yes","1",""
"14","63d3f9666978779139a949bb","svTrial","survey",21,254932,"0.0-2.0-19.0","65553732575bb29198a888d7","65565bf29085949a259cbd7f",7,"12255","Hokkaido_small_pos_4_0.jpg",NA,NA,NA,NA,NA,NA,NA,NA,NA,NA,NA,NA,NA,NA,NA,NA,"[]","small",1,"pos",4,14,2,3,2,2,2,1,"24015","31","male","man","","caucasian","","Yes","1",""
"15","63d3f9666978779139a949bb","svTrial","survey",22,264482,"0.0-2.0-20.0","65553732575bb29198a888d7","65565bf29085949a259cbd7f",7,"9545","Okinawa_small_sch_3_3.jpg",NA,NA,NA,NA,NA,NA,NA,NA,NA,NA,NA,NA,NA,NA,NA,NA,"[]","large",1,"sch",3,15,2,3,4,2,3,1,"24015","31","male","man","","caucasian","","Yes","1",""
"16","63d3f9666978779139a949bb","svTrial","survey",23,279069,"0.0-2.0-21.0","65553732575bb29198a888d7","65565bf29085949a259cbd7f",7,"14581","Tokyo_middle_pos_4_1.jpg",NA,NA,NA,NA,NA,NA,NA,NA,NA,NA,NA,NA,NA,NA,NA,NA,"[]","small",1,"pos",4,16,2,3,3,2,3,1,"24015","31","male","man","","caucasian","","Yes","1",""
"17","63d3f9666978779139a949bb","svTrial","survey",24,292519,"0.0-2.0-22.0","65553732575bb29198a888d7","65565bf29085949a259cbd7f",7,"13445","Niigata_middle_sch_3_1.jpg",NA,NA,NA,NA,NA,NA,NA,NA,NA,NA,NA,NA,NA,NA,NA,NA,"[]","middle",2,"pos",3,17,3,4,3,2,3,1,"24015","31","male","man","","caucasian","","Yes","1",""
"18","63d3f9666978779139a949bb","svTrial","survey",26,309429,"0.0-2.0-24.0","65553732575bb29198a888d7","65565bf29085949a259cbd7f",7,"13348","Niigata_small_pos_4_3.jpg",NA,NA,NA,NA,NA,NA,NA,NA,NA,NA,NA,NA,NA,NA,NA,NA,"[]","middle",2,"sch",4,18,2,2,2,2,3,1,"24015","31","male","man","","caucasian","","Yes","1",""
"19","63d3f9666978779139a949bb","svTrial","survey",27,321871,"0.0-2.0-25.0","65553732575bb29198a888d7","65565bf29085949a259cbd7f",7,"12437","Akita_small_pos_3_3.jpg",NA,NA,NA,NA,NA,NA,NA,NA,NA,NA,NA,NA,NA,NA,NA,NA,"[]","small",2,"pos",3,19,1,3,2,1,2,1,"24015","31","male","man","","caucasian","","Yes","1",""
"20","63d3f9666978779139a949bb","svTrial","survey",28,336307,"0.0-2.0-26.0","65553732575bb29198a888d7","65565bf29085949a259cbd7f",7,"14431","Hokkaido_large_pos_6_2.jpg",NA,NA,NA,NA,NA,NA,NA,NA,NA,NA,NA,NA,NA,NA,NA,NA,"[]","middle",1,"pos",6,20,2,3,5,2,3,1,"24015","31","male","man","","caucasian","","Yes","1",""
"21","63d3f9666978779139a949bb","svTrial","survey",29,350699,"0.0-2.0-27.0","65553732575bb29198a888d7","65565bf29085949a259cbd7f",7,"14385","Toyama_large_sch_3_2.jpg",NA,NA,NA,NA,NA,NA,NA,NA,NA,NA,NA,NA,NA,NA,NA,NA,"[]","large",2,"sch",3,21,2,4,3,2,3,1,"24015","31","male","man","","caucasian","","Yes","1",""
"22","63d3f9666978779139a949bb","svTrial","survey",30,362785,"0.0-2.0-28.0","65553732575bb29198a888d7","65565bf29085949a259cbd7f",7,"12080","Tokyo_large_sch_4_0.jpg",NA,NA,NA,NA,NA,NA,NA,NA,NA,NA,NA,NA,NA,NA,NA,NA,"[]","small",1,"pos",4,22,1,3,2,1,3,1,"24015","31","male","man","","caucasian","","Yes","1",""
"23","63d3f9666978779139a949bb","svTrial","survey",31,375266,"0.0-2.0-29.0","65553732575bb29198a888d7","65565bf29085949a259cbd7f",7,"12477","Ishikawa_middle_sch_7_0.jpg",NA,NA,NA,NA,NA,NA,NA,NA,NA,NA,NA,NA,NA,NA,NA,NA,"[]","large",2,"pos",7,23,3,3,4,3,3,1,"24015","31","male","man","","caucasian","","Yes","1",""
"24","63d3f9666978779139a949bb","svTrial","survey",32,388386,"0.0-2.0-30.0","65553732575bb29198a888d7","65565bf29085949a259cbd7f",7,"13116","Ishikawa_middle_pos_5_3.jpg",NA,NA,NA,NA,NA,NA,NA,NA,NA,NA,NA,NA,NA,NA,NA,NA,"[]","large",2,"sch",5,24,4,4,4,4,3,1,"24015","31","male","man","","caucasian","","Yes","1",""
"25","63d3f9666978779139a949bb","svTrial","survey",34,408056,"0.0-2.0-32.0","65553732575bb29198a888d7","65565bf29085949a259cbd7f",7,"14411","Hokkaido_large_pos_8_1.jpg",NA,NA,NA,NA,NA,NA,NA,NA,NA,NA,NA,NA,NA,NA,NA,NA,"[]","small",1,"sch",8,25,2,5,4,3,3,1,"24015","31","male","man","","caucasian","","Yes","1",""
"26","63d3f9666978779139a949bb","svTrial","survey",35,418759,"0.0-2.0-33.0","65553732575bb29198a888d7","65565bf29085949a259cbd7f",7,"10698","Akita_middle_pos_6_3.jpg",NA,NA,NA,NA,NA,NA,NA,NA,NA,NA,NA,NA,NA,NA,NA,NA,"[]","large",2,"sch",6,26,2,2,5,2,2,1,"24015","31","male","man","","caucasian","","Yes","1",""
"27","63d3f9666978779139a949bb","svTrial","survey",36,435423,"0.0-2.0-34.0","65553732575bb29198a888d7","65565bf29085949a259cbd7f",7,"16661","Tokyo_large_sch_6_3.jpg",NA,NA,NA,NA,NA,NA,NA,NA,NA,NA,NA,NA,NA,NA,NA,NA,"[]","large",1,"sch",6,27,2,4,4,3,3,1,"24015","31","male","man","","caucasian","","Yes","1",""
"28","63d3f9666978779139a949bb","svTrial","survey",37,445813,"0.0-2.0-35.0","65553732575bb29198a888d7","65565bf29085949a259cbd7f",7,"10384","Tokyo_large_sch_3_3.jpg",NA,NA,NA,NA,NA,NA,NA,NA,NA,NA,NA,NA,NA,NA,NA,NA,"[]","large",1,"sch",3,28,2,3,3,2,2,1,"24015","31","male","man","","caucasian","","Yes","1",""
"29","63d3f9666978779139a949bb","svTrial","survey",38,460442,"0.0-2.0-36.0","65553732575bb29198a888d7","65565bf29085949a259cbd7f",7,"14625","Ishikawa_large_sch_7_2.jpg",NA,NA,NA,NA,NA,NA,NA,NA,NA,NA,NA,NA,NA,NA,NA,NA,"[]","large",2,"pos",7,29,1,3,4,2,3,1,"24015","31","male","man","","caucasian","","Yes","1",""
"30","63d3f9666978779139a949bb","svTrial","survey",39,472142,"0.0-2.0-37.0","65553732575bb29198a888d7","65565bf29085949a259cbd7f",7,"11696","Ishikawa_large_sch_8_0.jpg",NA,NA,NA,NA,NA,NA,NA,NA,NA,NA,NA,NA,NA,NA,NA,NA,"[]","large",2,"pos",8,30,3,4,5,2,3,1,"24015","31","male","man","","caucasian","","Yes","1",""
"31","63d3f9666978779139a949bb","svTrial","survey",40,484214,"0.0-2.0-38.0","65553732575bb29198a888d7","65565bf29085949a259cbd7f",7,"12068","Okinawa_middle_pos_5_1.jpg",NA,NA,NA,NA,NA,NA,NA,NA,NA,NA,NA,NA,NA,NA,NA,NA,"[]","large",1,"sch",5,31,4,4,4,3,3,1,"24015","31","male","man","","caucasian","","Yes","1",""
"32","63d3f9666978779139a949bb","svTrial","survey",41,492499,"0.0-2.0-39.0","65553732575bb29198a888d7","65565bf29085949a259cbd7f",7,"8281","Hokkaido_large_sch_7_0.jpg",NA,NA,NA,NA,NA,NA,NA,NA,NA,NA,NA,NA,NA,NA,NA,NA,"[]","large",1,"sch",7,32,1,2,1,1,1,1,"24015","31","male","man","","caucasian","","Yes","1",""
"33","63d3f9666978779139a949bb","svTrial","survey",42,504866,"0.0-2.0-40.0","65553732575bb29198a888d7","65565bf29085949a259cbd7f",7,"12363","Akita_middle_pos_4_3.jpg",NA,NA,NA,NA,NA,NA,NA,NA,NA,NA,NA,NA,NA,NA,NA,NA,"[]","large",2,"pos",4,33,2,3,4,3,3,1,"24015","31","male","man","","caucasian","","Yes","1",""
"34","63d3f9666978779139a949bb","svTrial","survey",43,519472,"0.0-2.0-41.0","65553732575bb29198a888d7","65565bf29085949a259cbd7f",7,"14602","Niigata_large_sch_6_3.jpg",NA,NA,NA,NA,NA,NA,NA,NA,NA,NA,NA,NA,NA,NA,NA,NA,"[]","small",2,"sch",6,34,2,2,2,2,2,1,"24015","31","male","man","","caucasian","","Yes","1",""
"35","63d3f9666978779139a949bb","svTrial","survey",44,527386,"0.0-2.0-42.0","65553732575bb29198a888d7","65565bf29085949a259cbd7f",7,"7910","Ishikawa_small_pos_1_2.jpg",NA,NA,NA,NA,NA,NA,NA,NA,NA,NA,NA,NA,NA,NA,NA,NA,"[]","small",2,"pos",1,35,1,4,1,1,1,1,"24015","31","male","man","","caucasian","","Yes","1",""
"36","63d3f9666978779139a949bb","svTrial","survey",45,548389,"0.0-2.0-43.0","65553732575bb29198a888d7","65565bf29085949a259cbd7f",7,"20998","Ishikawa_small_pos_2_2.jpg",NA,NA,NA,NA,NA,NA,NA,NA,NA,NA,NA,NA,NA,NA,NA,NA,"[]","middle",2,"pos",2,36,3,4,5,2,3,1,"24015","31","male","man","","caucasian","","Yes","1",""
"37","63d3f9666978779139a949bb","svTrial","survey",46,561015,"0.0-2.0-44.0","65553732575bb29198a888d7","65565bf29085949a259cbd7f",7,"12622","Hokkaido_small_sch_1_0.jpg",NA,NA,NA,NA,NA,NA,NA,NA,NA,NA,NA,NA,NA,NA,NA,NA,"[]","small",1,"pos",1,37,2,2,2,3,3,1,"24015","31","male","man","","caucasian","","Yes","1",""
"38","63d3f9666978779139a949bb","svTrial","survey",47,576333,"0.0-2.0-45.0","65553732575bb29198a888d7","65565bf29085949a259cbd7f",7,"15309","Akita_middle_sch_3_0.jpg",NA,NA,NA,NA,NA,NA,NA,NA,NA,NA,NA,NA,NA,NA,NA,NA,"[]","large",2,"pos",3,38,4,2,2,3,3,1,"24015","31","male","man","","caucasian","","Yes","1",""
"39","63d3f9666978779139a949bb","svTrial","survey",48,584760,"0.0-2.0-46.0","65553732575bb29198a888d7","65565bf29085949a259cbd7f",7,"8423","Niigata_middle_sch_1_0.jpg",NA,NA,NA,NA,NA,NA,NA,NA,NA,NA,NA,NA,NA,NA,NA,NA,"[]","large",2,"sch",1,39,5,1,4,4,3,1,"24015","31","male","man","","caucasian","","Yes","1",""
"40","63d3f9666978779139a949bb","svTrial","survey",49,594822,"0.0-2.0-47.0","65553732575bb29198a888d7","65565bf29085949a259cbd7f",7,"10057","Ishikawa_middle_sch_6_1.jpg",NA,NA,NA,NA,NA,NA,NA,NA,NA,NA,NA,NA,NA,NA,NA,NA,"[]","large",2,"sch",6,40,2,4,5,3,3,1,"24015","31","male","man","","caucasian","","Yes","1",""
"41","63d3f9666978779139a949bb","svTrial","survey",50,605202,"0.0-2.0-48.0","65553732575bb29198a888d7","65565bf29085949a259cbd7f",7,"10377","Okinawa_large_pos_7_2.jpg",NA,NA,NA,NA,NA,NA,NA,NA,NA,NA,NA,NA,NA,NA,NA,NA,"[]","large",1,"sch",7,41,3,2,4,2,3,1,"24015","31","male","man","","caucasian","","Yes","1",""
"42","63d3f9666978779139a949bb","svTrial","survey",51,613789,"0.0-2.0-49.0","65553732575bb29198a888d7","65565bf29085949a259cbd7f",7,"8584","Tokyo_middle_sch_4_2.jpg",NA,NA,NA,NA,NA,NA,NA,NA,NA,NA,NA,NA,NA,NA,NA,NA,"[]","large",1,"sch",4,42,2,3,2,2,2,1,"24015","31","male","man","","caucasian","","Yes","1",""
"43","63d3f9666978779139a949bb","svTrial","survey",52,625845,"0.0-2.0-50.0","65553732575bb29198a888d7","65565bf29085949a259cbd7f",7,"12050","Niigata_large_pos_7_3.jpg",NA,NA,NA,NA,NA,NA,NA,NA,NA,NA,NA,NA,NA,NA,NA,NA,"[]","middle",2,"sch",7,43,4,5,4,4,3,1,"24015","31","male","man","","caucasian","","Yes","1",""
"44","63d3f9666978779139a949bb","svTrial","survey",53,636539,"0.0-2.0-51.0","65553732575bb29198a888d7","65565bf29085949a259cbd7f",7,"10690","Akita_small_pos_1_1.jpg",NA,NA,NA,NA,NA,NA,NA,NA,NA,NA,NA,NA,NA,NA,NA,NA,"[]","middle",2,"pos",1,44,4,3,5,4,3,1,"24015","31","male","man","","caucasian","","Yes","1",""
"45","63d3f9666978779139a949bb","svTrial","survey",54,645463,"0.0-2.0-52.0","65553732575bb29198a888d7","65565bf29085949a259cbd7f",7,"8919","Tokyo_middle_sch_1_2.jpg",NA,NA,NA,NA,NA,NA,NA,NA,NA,NA,NA,NA,NA,NA,NA,NA,"[]","large",1,"sch",1,45,1,4,4,1,2,1,"24015","31","male","man","","caucasian","","Yes","1",""
"46","63d3f9666978779139a949bb","svTrial","survey",55,656785,"0.0-2.0-53.0","65553732575bb29198a888d7","65565bf29085949a259cbd7f",7,"11317","Kanagawa_large_pos_8_1.jpg",NA,NA,NA,NA,NA,NA,NA,NA,NA,NA,NA,NA,NA,NA,NA,NA,"[]","large",1,"pos",8,46,2,5,5,1,2,1,"24015","31","male","man","","caucasian","","Yes","1",""
"47","63d3f9666978779139a949bb","svTrial","survey",56,665909,"0.0-2.0-54.0","65553732575bb29198a888d7","65565bf29085949a259cbd7f",7,"9120","Ishikawa_middle_sch_3_2.jpg",NA,NA,NA,NA,NA,NA,NA,NA,NA,NA,NA,NA,NA,NA,NA,NA,"[]","small",2,"sch",3,47,2,2,2,2,2,1,"24015","31","male","man","","caucasian","","Yes","1",""
"48","63d3f9666978779139a949bb","svTrial","survey",57,676532,"0.0-2.0-55.0","65553732575bb29198a888d7","65565bf29085949a259cbd7f",7,"10619","Tokyo_large_pos_11_3.jpg",NA,NA,NA,NA,NA,NA,NA,NA,NA,NA,NA,NA,NA,NA,NA,NA,"[]","small",1,"sch",11,48,3,2,4,2,2,1,"24015","31","male","man","","caucasian","","Yes","1",""
