"","subject_id","task","trial_type","trial_index","time_elapsed","internal_node_id","study_id","session_id","group","rt","stimulus","width","height","webaudio","browser","browser_version","mobile","os","fullscreen","vsync_rate","webcam","microphone","success","timeout","failed_images","failed_audio","failed_video","accuracy","size","culture","loct","number","document.id","ambiguous","objects","invisible","chaos","complex","passedChecks","zipcode","age","sex","gender","gender-self-describe","ethnicity","ethnicity-self-describe","outsideUS","outsideUS_years","surveyComments"
"1","63d3fbb451ad7ba5c2f30246","svTrial","survey",8,243356,"0.0-2.0-6.0","65553732575bb29198a888d7","65565920b0b6215c6a56b2b5",8,"21994","Niigata_middle_pos_2_2.jpg",NA,NA,NA,NA,NA,NA,NA,NA,NA,NA,NA,NA,NA,NA,NA,NA,"[]","large",2,"pos",2,1,1,3,3,2,2,1,"10029","23","male","man","","african","","No","",""
"2","63d3fbb451ad7ba5c2f30246","svTrial","survey",9,258512,"0.0-2.0-7.0","65553732575bb29198a888d7","65565920b0b6215c6a56b2b5",8,"15133","Tokyo_middle_pos_2_0.jpg",NA,NA,NA,NA,NA,NA,NA,NA,NA,NA,NA,NA,NA,NA,NA,NA,"[]","large",1,"pos",2,2,4,4,2,3,2,1,"10029","23","male","man","","african","","No","",""
"3","63d3fbb451ad7ba5c2f30246","svTrial","survey",10,287342,"0.0-2.0-8.0","65553732575bb29198a888d7","65565920b0b6215c6a56b2b5",8,"28811","Hokkaido_middle_pos_7_2.jpg",NA,NA,NA,NA,NA,NA,NA,NA,NA,NA,NA,NA,NA,NA,NA,NA,"[]","small",1,"sch",7,3,2,2,3,2,2,1,"10029","23","male","man","","african","","No","",""
"4","63d3fbb451ad7ba5c2f30246","svTrial","survey",11,309986,"0.0-2.0-9.0","65553732575bb29198a888d7","65565920b0b6215c6a56b2b5",8,"22624","Niigata_middle_sch_6_0.jpg",NA,NA,NA,NA,NA,NA,NA,NA,NA,NA,NA,NA,NA,NA,NA,NA,"[]","large",2,"sch",6,4,2,3,3,2,2,1,"10029","23","male","man","","african","","No","",""
"5","63d3fbb451ad7ba5c2f30246","svTrial","survey",12,319587,"0.0-2.0-10.0","65553732575bb29198a888d7","65565920b0b6215c6a56b2b5",8,"9586","Toyama_large_pos_2_1.jpg",NA,NA,NA,NA,NA,NA,NA,NA,NA,NA,NA,NA,NA,NA,NA,NA,"[]","large",2,"sch",2,5,4,5,4,2,4,1,"10029","23","male","man","","african","","No","",""
"6","63d3fbb451ad7ba5c2f30246","svTrial","survey",13,328663,"0.0-2.0-11.0","65553732575bb29198a888d7","65565920b0b6215c6a56b2b5",8,"9064","Tokyo_large_pos_9_1.jpg",NA,NA,NA,NA,NA,NA,NA,NA,NA,NA,NA,NA,NA,NA,NA,NA,"[]","large",1,"pos",9,6,3,4,3,4,3,1,"10029","23","male","man","","african","","No","",""
"7","63d3fbb451ad7ba5c2f30246","svTrial","survey",14,339713,"0.0-2.0-12.0","65553732575bb29198a888d7","65565920b0b6215c6a56b2b5",8,"11033","Ishikawa_middle_pos_4_2.jpg",NA,NA,NA,NA,NA,NA,NA,NA,NA,NA,NA,NA,NA,NA,NA,NA,"[]","large",2,"sch",4,7,2,1,2,2,2,1,"10029","23","male","man","","african","","No","",""
"8","63d3fbb451ad7ba5c2f30246","svTrial","survey",15,351157,"0.0-2.0-13.0","65553732575bb29198a888d7","65565920b0b6215c6a56b2b5",8,"11431","Akita_middle_pos_7_2.jpg",NA,NA,NA,NA,NA,NA,NA,NA,NA,NA,NA,NA,NA,NA,NA,NA,"[]","middle",2,"pos",7,8,1,1,2,1,1,1,"10029","23","male","man","","african","","No","",""
"9","63d3fbb451ad7ba5c2f30246","svTrial","survey",16,364727,"0.0-2.0-14.0","65553732575bb29198a888d7","65565920b0b6215c6a56b2b5",8,"13557","Tokyo_middle_pos_1_0.jpg",NA,NA,NA,NA,NA,NA,NA,NA,NA,NA,NA,NA,NA,NA,NA,NA,"[]","large",1,"sch",1,9,4,3,3,2,2,1,"10029","23","male","man","","african","","No","",""
"10","63d3fbb451ad7ba5c2f30246","svTrial","survey",17,375084,"0.0-2.0-15.0","65553732575bb29198a888d7","65565920b0b6215c6a56b2b5",8,"10342","Kanagawa_large_pos_2_1.jpg",NA,NA,NA,NA,NA,NA,NA,NA,NA,NA,NA,NA,NA,NA,NA,NA,"[]","small",1,"pos",2,10,4,2,3,2,2,1,"10029","23","male","man","","african","","No","",""
"11","63d3fbb451ad7ba5c2f30246","svTrial","survey",18,421624,"0.0-2.0-16.0","65553732575bb29198a888d7","65565920b0b6215c6a56b2b5",8,"46527","Ishikawa_large_sch_11_2.jpg",NA,NA,NA,NA,NA,NA,NA,NA,NA,NA,NA,NA,NA,NA,NA,NA,"[]","small",2,"pos",11,11,4,2,2,2,2,1,"10029","23","male","man","","african","","No","",""
"12","63d3fbb451ad7ba5c2f30246","svTrial","survey",19,448764,"0.0-2.0-17.0","65553732575bb29198a888d7","65565920b0b6215c6a56b2b5",8,"27124","Tokyo_large_pos_8_1.jpg",NA,NA,NA,NA,NA,NA,NA,NA,NA,NA,NA,NA,NA,NA,NA,NA,"[]","small",1,"sch",8,12,4,4,3,4,3,1,"10029","23","male","man","","african","","No","",""
"13","63d3fbb451ad7ba5c2f30246","svTrial","survey",20,461243,"0.0-2.0-18.0","65553732575bb29198a888d7","65565920b0b6215c6a56b2b5",8,"12441","Kanagawa_large_pos_11_2.jpg",NA,NA,NA,NA,NA,NA,NA,NA,NA,NA,NA,NA,NA,NA,NA,NA,"[]","large",1,"pos",11,13,2,4,3,2,2,1,"10029","23","male","man","","african","","No","",""
"14","63d3fbb451ad7ba5c2f30246","svTrial","survey",21,470699,"0.0-2.0-19.0","65553732575bb29198a888d7","65565920b0b6215c6a56b2b5",8,"9433","Niigata_small_sch_3_2.jpg",NA,NA,NA,NA,NA,NA,NA,NA,NA,NA,NA,NA,NA,NA,NA,NA,"[]","middle",2,"sch",3,14,1,2,2,1,2,1,"10029","23","male","man","","african","","No","",""
"15","63d3fbb451ad7ba5c2f30246","svTrial","survey",22,476924,"0.0-2.0-20.0","65553732575bb29198a888d7","65565920b0b6215c6a56b2b5",8,"6207","Hokkaido_large_pos_7_0.jpg",NA,NA,NA,NA,NA,NA,NA,NA,NA,NA,NA,NA,NA,NA,NA,NA,"[]","middle",1,"sch",7,15,2,3,2,1,1,1,"10029","23","male","man","","african","","No","",""
"16","63d3fbb451ad7ba5c2f30246","svTrial","survey",23,492058,"0.0-2.0-21.0","65553732575bb29198a888d7","65565920b0b6215c6a56b2b5",8,"15120","Ishikawa_small_sch_2_2.jpg",NA,NA,NA,NA,NA,NA,NA,NA,NA,NA,NA,NA,NA,NA,NA,NA,"[]","large",2,"sch",2,16,2,3,1,1,1,1,"10029","23","male","man","","african","","No","",""
"17","63d3fbb451ad7ba5c2f30246","svTrial","survey",24,503875,"0.0-2.0-22.0","65553732575bb29198a888d7","65565920b0b6215c6a56b2b5",8,"11785","Hokkaido_large_pos_2_1.jpg",NA,NA,NA,NA,NA,NA,NA,NA,NA,NA,NA,NA,NA,NA,NA,NA,"[]","small",1,"sch",2,17,2,3,4,3,3,1,"10029","23","male","man","","african","","No","",""
"18","63d3fbb451ad7ba5c2f30246","svTrial","survey",25,535311,"0.0-2.0-23.0","65553732575bb29198a888d7","65565920b0b6215c6a56b2b5",8,"31419","Tokyo_small_sch_2_0.jpg",NA,NA,NA,NA,NA,NA,NA,NA,NA,NA,NA,NA,NA,NA,NA,NA,"[]","small",1,"pos",2,18,4,3,2,2,3,1,"10029","23","male","man","","african","","No","",""
"19","63d3fbb451ad7ba5c2f30246","svTrial","survey",26,546956,"0.0-2.0-24.0","65553732575bb29198a888d7","65565920b0b6215c6a56b2b5",8,"11627","Okinawa_large_pos_11_3.jpg",NA,NA,NA,NA,NA,NA,NA,NA,NA,NA,NA,NA,NA,NA,NA,NA,"[]","large",1,"pos",11,19,4,4,3,3,4,1,"10029","23","male","man","","african","","No","",""
"20","63d3fbb451ad7ba5c2f30246","svTrial","survey",27,567800,"0.0-2.0-25.0","65553732575bb29198a888d7","65565920b0b6215c6a56b2b5",8,"20829","Akita_small_sch_2_1.jpg",NA,NA,NA,NA,NA,NA,NA,NA,NA,NA,NA,NA,NA,NA,NA,NA,"[]","small",2,"pos",2,20,5,2,5,4,1,1,"10029","23","male","man","","african","","No","",""
"21","63d3fbb451ad7ba5c2f30246","svTrial","survey",28,594121,"0.0-2.0-26.0","65553732575bb29198a888d7","65565920b0b6215c6a56b2b5",8,"26282","Kanagawa_large_sch_10_0.jpg",NA,NA,NA,NA,NA,NA,NA,NA,NA,NA,NA,NA,NA,NA,NA,NA,"[]","large",1,"pos",10,21,4,4,3,4,3,1,"10029","23","male","man","","african","","No","",""
"22","63d3fbb451ad7ba5c2f30246","svTrial","survey",29,613217,"0.0-2.0-27.0","65553732575bb29198a888d7","65565920b0b6215c6a56b2b5",8,"19076","Akita_large_pos_4_2.jpg",NA,NA,NA,NA,NA,NA,NA,NA,NA,NA,NA,NA,NA,NA,NA,NA,"[]","middle",2,"pos",4,22,2,1,2,1,2,1,"10029","23","male","man","","african","","No","",""
"23","63d3fbb451ad7ba5c2f30246","svTrial","survey",30,620057,"0.0-2.0-28.0","65553732575bb29198a888d7","65565920b0b6215c6a56b2b5",8,"6804","Toyama_middle_sch_6_1.jpg",NA,NA,NA,NA,NA,NA,NA,NA,NA,NA,NA,NA,NA,NA,NA,NA,"[]","large",2,"pos",6,23,4,3,4,2,2,1,"10029","23","male","man","","african","","No","",""
"24","63d3fbb451ad7ba5c2f30246","svTrial","survey",31,629652,"0.0-2.0-29.0","65553732575bb29198a888d7","65565920b0b6215c6a56b2b5",8,"9560","Ishikawa_large_pos_9_3.jpg",NA,NA,NA,NA,NA,NA,NA,NA,NA,NA,NA,NA,NA,NA,NA,NA,"[]","large",2,"pos",9,24,4,3,4,2,2,1,"10029","23","male","man","","african","","No","",""
"25","63d3fbb451ad7ba5c2f30246","svTrial","survey",33,658156,"0.0-2.0-31.0","65553732575bb29198a888d7","65565920b0b6215c6a56b2b5",8,"12730","Hokkaido_large_sch_10_2.jpg",NA,NA,NA,NA,NA,NA,NA,NA,NA,NA,NA,NA,NA,NA,NA,NA,"[]","large",1,"pos",10,25,2,3,4,2,2,1,"10029","23","male","man","","african","","No","",""
"26","63d3fbb451ad7ba5c2f30246","svTrial","survey",34,680640,"0.0-2.0-32.0","65553732575bb29198a888d7","65565920b0b6215c6a56b2b5",8,"22467","Okinawa_large_sch_10_2.jpg",NA,NA,NA,NA,NA,NA,NA,NA,NA,NA,NA,NA,NA,NA,NA,NA,"[]","large",1,"sch",10,26,2,3,2,2,3,1,"10029","23","male","man","","african","","No","",""
"27","63d3fbb451ad7ba5c2f30246","svTrial","survey",35,696137,"0.0-2.0-33.0","65553732575bb29198a888d7","65565920b0b6215c6a56b2b5",8,"15459","Tokyo_large_sch_1_0.jpg",NA,NA,NA,NA,NA,NA,NA,NA,NA,NA,NA,NA,NA,NA,NA,NA,"[]","middle",1,"pos",1,27,4,4,3,4,5,1,"10029","23","male","man","","african","","No","",""
"28","63d3fbb451ad7ba5c2f30246","svTrial","survey",36,711059,"0.0-2.0-34.0","65553732575bb29198a888d7","65565920b0b6215c6a56b2b5",8,"14902","Toyama_small_pos_1_2.jpg",NA,NA,NA,NA,NA,NA,NA,NA,NA,NA,NA,NA,NA,NA,NA,NA,"[]","small",2,"pos",1,28,1,1,1,NA,1,1,"10029","23","male","man","","african","","No","",""
"29","63d3fbb451ad7ba5c2f30246","svTrial","survey",37,767990,"0.0-2.0-35.0","65553732575bb29198a888d7","65565920b0b6215c6a56b2b5",8,"56917","Toyama_middle_pos_3_1.jpg",NA,NA,NA,NA,NA,NA,NA,NA,NA,NA,NA,NA,NA,NA,NA,NA,"[]","large",2,"pos",3,29,1,2,3,2,2,1,"10029","23","male","man","","african","","No","",""
"30","63d3fbb451ad7ba5c2f30246","svTrial","survey",38,775572,"0.0-2.0-36.0","65553732575bb29198a888d7","65565920b0b6215c6a56b2b5",8,"7549","Okinawa_small_pos_1_1.jpg",NA,NA,NA,NA,NA,NA,NA,NA,NA,NA,NA,NA,NA,NA,NA,NA,"[]","large",1,"sch",1,30,4,4,2,4,4,1,"10029","23","male","man","","african","","No","",""
"31","63d3fbb451ad7ba5c2f30246","svTrial","survey",39,792130,"0.0-2.0-37.0","65553732575bb29198a888d7","65565920b0b6215c6a56b2b5",8,"16536","Okinawa_middle_pos_8_2.jpg",NA,NA,NA,NA,NA,NA,NA,NA,NA,NA,NA,NA,NA,NA,NA,NA,"[]","small",1,"pos",8,31,3,3,4,2,2,1,"10029","23","male","man","","african","","No","",""
"32","63d3fbb451ad7ba5c2f30246","svTrial","survey",40,802620,"0.0-2.0-38.0","65553732575bb29198a888d7","65565920b0b6215c6a56b2b5",8,"10474","Toyama_middle_pos_6_1.jpg",NA,NA,NA,NA,NA,NA,NA,NA,NA,NA,NA,NA,NA,NA,NA,NA,"[]","small",2,"pos",6,32,5,3,4,3,3,1,"10029","23","male","man","","african","","No","",""
"33","63d3fbb451ad7ba5c2f30246","svTrial","survey",41,810728,"0.0-2.0-39.0","65553732575bb29198a888d7","65565920b0b6215c6a56b2b5",8,"8095","Kanagawa_middle_sch_7_1.jpg",NA,NA,NA,NA,NA,NA,NA,NA,NA,NA,NA,NA,NA,NA,NA,NA,"[]","large",1,"pos",7,33,1,2,2,2,2,1,"10029","23","male","man","","african","","No","",""
"34","63d3fbb451ad7ba5c2f30246","svTrial","survey",42,826524,"0.0-2.0-40.0","65553732575bb29198a888d7","65565920b0b6215c6a56b2b5",8,"15758","Akita_middle_pos_3_1.jpg",NA,NA,NA,NA,NA,NA,NA,NA,NA,NA,NA,NA,NA,NA,NA,NA,"[]","middle",2,"pos",3,34,3,4,3,2,3,1,"10029","23","male","man","","african","","No","",""
"35","63d3fbb451ad7ba5c2f30246","svTrial","survey",43,854186,"0.0-2.0-41.0","65553732575bb29198a888d7","65565920b0b6215c6a56b2b5",8,"27639","Okinawa_small_sch_2_1.jpg",NA,NA,NA,NA,NA,NA,NA,NA,NA,NA,NA,NA,NA,NA,NA,NA,"[]","middle",1,"sch",2,35,4,3,2,2,2,1,"10029","23","male","man","","african","","No","",""
"36","63d3fbb451ad7ba5c2f30246","svTrial","survey",44,859977,"0.0-2.0-42.0","65553732575bb29198a888d7","65565920b0b6215c6a56b2b5",8,"5777","Toyama_large_sch_6_1.jpg",NA,NA,NA,NA,NA,NA,NA,NA,NA,NA,NA,NA,NA,NA,NA,NA,"[]","middle",2,"sch",6,36,1,1,2,1,1,1,"10029","23","male","man","","african","","No","",""
"37","63d3fbb451ad7ba5c2f30246","svTrial","survey",45,869155,"0.0-2.0-43.0","65553732575bb29198a888d7","65565920b0b6215c6a56b2b5",8,"9164","Okinawa_middle_sch_5_0.jpg",NA,NA,NA,NA,NA,NA,NA,NA,NA,NA,NA,NA,NA,NA,NA,NA,"[]","small",1,"sch",5,37,3,3,3,2,2,1,"10029","23","male","man","","african","","No","",""
"38","63d3fbb451ad7ba5c2f30246","svTrial","survey",46,900142,"0.0-2.0-44.0","65553732575bb29198a888d7","65565920b0b6215c6a56b2b5",8,"30973","Ishikawa_middle_pos_8_2.jpg",NA,NA,NA,NA,NA,NA,NA,NA,NA,NA,NA,NA,NA,NA,NA,NA,"[]","small",2,"sch",8,38,4,4,3,3,3,1,"10029","23","male","man","","african","","No","",""
"39","63d3fbb451ad7ba5c2f30246","svTrial","survey",47,937029,"0.0-2.0-45.0","65553732575bb29198a888d7","65565920b0b6215c6a56b2b5",8,"36851","Okinawa_middle_pos_7_0.jpg",NA,NA,NA,NA,NA,NA,NA,NA,NA,NA,NA,NA,NA,NA,NA,NA,"[]","middle",1,"sch",7,39,3,3,2,3,3,1,"10029","23","male","man","","african","","No","",""
"40","63d3fbb451ad7ba5c2f30246","svTrial","survey",48,963254,"0.0-2.0-46.0","65553732575bb29198a888d7","65565920b0b6215c6a56b2b5",8,"26189","Toyama_large_sch_2_0.jpg",NA,NA,NA,NA,NA,NA,NA,NA,NA,NA,NA,NA,NA,NA,NA,NA,"[]","large",2,"pos",2,40,2,3,4,2,2,1,"10029","23","male","man","","african","","No","",""
"41","63d3fbb451ad7ba5c2f30246","svTrial","survey",50,977938,"0.0-2.0-48.0","65553732575bb29198a888d7","65565920b0b6215c6a56b2b5",8,"9670","Niigata_middle_pos_4_0.jpg",NA,NA,NA,NA,NA,NA,NA,NA,NA,NA,NA,NA,NA,NA,NA,NA,"[]","small",2,"pos",4,41,3,3,4,3,3,1,"10029","23","male","man","","african","","No","",""
"42","63d3fbb451ad7ba5c2f30246","svTrial","survey",51,985525,"0.0-2.0-49.0","65553732575bb29198a888d7","65565920b0b6215c6a56b2b5",8,"7572","Kanagawa_small_pos_4_3.jpg",NA,NA,NA,NA,NA,NA,NA,NA,NA,NA,NA,NA,NA,NA,NA,NA,"[]","middle",1,"pos",4,42,4,4,3,4,4,1,"10029","23","male","man","","african","","No","",""
"43","63d3fbb451ad7ba5c2f30246","svTrial","survey",52,1001114,"0.0-2.0-50.0","65553732575bb29198a888d7","65565920b0b6215c6a56b2b5",8,"15575","Toyama_middle_sch_4_2.jpg",NA,NA,NA,NA,NA,NA,NA,NA,NA,NA,NA,NA,NA,NA,NA,NA,"[]","middle",2,"sch",4,43,2,2,3,2,2,1,"10029","23","male","man","","african","","No","",""
"44","63d3fbb451ad7ba5c2f30246","svTrial","survey",53,1006320,"0.0-2.0-51.0","65553732575bb29198a888d7","65565920b0b6215c6a56b2b5",8,"5168","Niigata_large_pos_2_3.jpg",NA,NA,NA,NA,NA,NA,NA,NA,NA,NA,NA,NA,NA,NA,NA,NA,"[]","middle",2,"pos",2,44,NA,NA,NA,NA,NA,1,"10029","23","male","man","","african","","No","",""
"45","63d3fbb451ad7ba5c2f30246","svTrial","survey",54,1019294,"0.0-2.0-52.0","65553732575bb29198a888d7","65565920b0b6215c6a56b2b5",8,"12958","Akita_middle_pos_2_3.jpg",NA,NA,NA,NA,NA,NA,NA,NA,NA,NA,NA,NA,NA,NA,NA,NA,"[]","large",2,"sch",2,45,2,4,3,3,3,1,"10029","23","male","man","","african","","No","",""
"46","63d3fbb451ad7ba5c2f30246","svTrial","survey",55,1028185,"0.0-2.0-53.0","65553732575bb29198a888d7","65565920b0b6215c6a56b2b5",8,"8875","Ishikawa_large_pos_12_0.jpg",NA,NA,NA,NA,NA,NA,NA,NA,NA,NA,NA,NA,NA,NA,NA,NA,"[]","small",2,"sch",12,46,2,3,4,2,2,1,"10029","23","male","man","","african","","No","",""
"47","63d3fbb451ad7ba5c2f30246","svTrial","survey",56,1045261,"0.0-2.0-54.0","65553732575bb29198a888d7","65565920b0b6215c6a56b2b5",8,"17058","Kanagawa_large_pos_6_0.jpg",NA,NA,NA,NA,NA,NA,NA,NA,NA,NA,NA,NA,NA,NA,NA,NA,"[]","small",1,"sch",6,47,2,2,4,3,3,1,"10029","23","male","man","","african","","No","",""
"48","63d3fbb451ad7ba5c2f30246","svTrial","survey",57,1052820,"0.0-2.0-55.0","65553732575bb29198a888d7","65565920b0b6215c6a56b2b5",8,"7543","Tokyo_large_sch_5_2.jpg",NA,NA,NA,NA,NA,NA,NA,NA,NA,NA,NA,NA,NA,NA,NA,NA,"[]","large",1,"sch",5,48,2,3,4,2,2,1,"10029","23","male","man","","african","","No","",""
