"","subject_id","task","trial_type","trial_index","time_elapsed","internal_node_id","study_id","session_id","group","rt","stimulus","width","height","webaudio","browser","browser_version","mobile","os","fullscreen","vsync_rate","webcam","microphone","success","timeout","failed_images","failed_audio","failed_video","accuracy","size","culture","loct","number","document.id","ambiguous","objects","invisible","chaos","complex","passedChecks","zipcode","age","sex","gender","gender-self-describe","ethnicity","ethnicity-self-describe","outsideUS","outsideUS_years","surveyComments"
"1","63e527c0f1126787252598ea","svTrial","survey",8,76622,"0.0-2.0-6.0","65553732575bb29198a888d7","655658ca63dc0055f01b4701",3,"46607","Okinawa_small_pos_3_1.jpg",NA,NA,NA,NA,NA,NA,NA,NA,NA,NA,NA,NA,NA,NA,NA,NA,"[]","large",1,"pos",3,1,5,3,4,5,4,1,"02745","27","female","woman","","caucasian","","No","",""
"2","63e527c0f1126787252598ea","svTrial","survey",9,94731,"0.0-2.0-7.0","65553732575bb29198a888d7","655658ca63dc0055f01b4701",3,"18089","Akita_middle_sch_6_3.jpg",NA,NA,NA,NA,NA,NA,NA,NA,NA,NA,NA,NA,NA,NA,NA,NA,"[]","small",2,"sch",6,2,2,3,4,2,2,1,"02745","27","female","woman","","caucasian","","No","",""
"3","63e527c0f1126787252598ea","svTrial","survey",10,112828,"0.0-2.0-8.0","65553732575bb29198a888d7","655658ca63dc0055f01b4701",3,"18077","Akita_large_sch_7_3.jpg",NA,NA,NA,NA,NA,NA,NA,NA,NA,NA,NA,NA,NA,NA,NA,NA,"[]","large",2,"sch",7,3,5,3,2,1,2,1,"02745","27","female","woman","","caucasian","","No","",""
"4","63e527c0f1126787252598ea","svTrial","survey",11,133782,"0.0-2.0-9.0","65553732575bb29198a888d7","655658ca63dc0055f01b4701",3,"20932","Kanagawa_large_sch_11_0.jpg",NA,NA,NA,NA,NA,NA,NA,NA,NA,NA,NA,NA,NA,NA,NA,NA,"[]","large",1,"sch",11,4,2,3,3,5,4,1,"02745","27","female","woman","","caucasian","","No","",""
"5","63e527c0f1126787252598ea","svTrial","survey",12,149865,"0.0-2.0-10.0","65553732575bb29198a888d7","655658ca63dc0055f01b4701",3,"16060","Tokyo_small_sch_4_3.jpg",NA,NA,NA,NA,NA,NA,NA,NA,NA,NA,NA,NA,NA,NA,NA,NA,"[]","large",1,"pos",4,5,5,4,3,5,4,1,"02745","27","female","woman","","caucasian","","No","",""
"6","63e527c0f1126787252598ea","svTrial","survey",13,167476,"0.0-2.0-11.0","65553732575bb29198a888d7","655658ca63dc0055f01b4701",3,"17594","Akita_large_pos_9_2.jpg",NA,NA,NA,NA,NA,NA,NA,NA,NA,NA,NA,NA,NA,NA,NA,NA,"[]","small",2,"pos",9,6,5,5,2,5,5,1,"02745","27","female","woman","","caucasian","","No","",""
"7","63e527c0f1126787252598ea","svTrial","survey",14,181995,"0.0-2.0-12.0","65553732575bb29198a888d7","655658ca63dc0055f01b4701",3,"14499","Hokkaido_middle_sch_1_2.jpg",NA,NA,NA,NA,NA,NA,NA,NA,NA,NA,NA,NA,NA,NA,NA,NA,"[]","small",1,"sch",1,7,2,1,2,1,1,1,"02745","27","female","woman","","caucasian","","No","",""
"8","63e527c0f1126787252598ea","svTrial","survey",15,196491,"0.0-2.0-13.0","65553732575bb29198a888d7","655658ca63dc0055f01b4701",3,"14477","Niigata_middle_pos_7_2.jpg",NA,NA,NA,NA,NA,NA,NA,NA,NA,NA,NA,NA,NA,NA,NA,NA,"[]","large",2,"sch",7,8,5,3,1,3,2,1,"02745","27","female","woman","","caucasian","","No","",""
"9","63e527c0f1126787252598ea","svTrial","survey",16,208531,"0.0-2.0-14.0","65553732575bb29198a888d7","655658ca63dc0055f01b4701",3,"12018","Tokyo_small_sch_1_3.jpg",NA,NA,NA,NA,NA,NA,NA,NA,NA,NA,NA,NA,NA,NA,NA,NA,"[]","small",1,"sch",1,9,4,3,2,3,3,1,"02745","27","female","woman","","caucasian","","No","",""
"10","63e527c0f1126787252598ea","svTrial","survey",17,232041,"0.0-2.0-15.0","65553732575bb29198a888d7","655658ca63dc0055f01b4701",3,"23488","Kanagawa_middle_pos_6_1.jpg",NA,NA,NA,NA,NA,NA,NA,NA,NA,NA,NA,NA,NA,NA,NA,NA,"[]","large",1,"sch",6,10,2,4,3,2,2,1,"02745","27","female","woman","","caucasian","","No","",""
"11","63e527c0f1126787252598ea","svTrial","survey",18,247637,"0.0-2.0-16.0","65553732575bb29198a888d7","655658ca63dc0055f01b4701",3,"15575","Toyama_small_sch_3_0.jpg",NA,NA,NA,NA,NA,NA,NA,NA,NA,NA,NA,NA,NA,NA,NA,NA,"[]","large",2,"pos",3,11,1,1,3,1,1,1,"02745","27","female","woman","","caucasian","","No","",""
"12","63e527c0f1126787252598ea","svTrial","survey",19,258077,"0.0-2.0-17.0","65553732575bb29198a888d7","655658ca63dc0055f01b4701",3,"10418","Niigata_large_pos_9_1.jpg",NA,NA,NA,NA,NA,NA,NA,NA,NA,NA,NA,NA,NA,NA,NA,NA,"[]","small",2,"sch",9,12,1,1,2,1,1,1,"02745","27","female","woman","","caucasian","","No","",""
"13","63e527c0f1126787252598ea","svTrial","survey",20,279510,"0.0-2.0-18.0","65553732575bb29198a888d7","655658ca63dc0055f01b4701",3,"21415","Ishikawa_large_sch_6_1.jpg",NA,NA,NA,NA,NA,NA,NA,NA,NA,NA,NA,NA,NA,NA,NA,NA,"[]","small",2,"sch",6,13,4,3,5,5,3,1,"02745","27","female","woman","","caucasian","","No","",""
"14","63e527c0f1126787252598ea","svTrial","survey",21,290073,"0.0-2.0-19.0","65553732575bb29198a888d7","655658ca63dc0055f01b4701",3,"10543","Ishikawa_large_pos_7_1.jpg",NA,NA,NA,NA,NA,NA,NA,NA,NA,NA,NA,NA,NA,NA,NA,NA,"[]","large",2,"sch",7,14,5,5,5,5,5,1,"02745","27","female","woman","","caucasian","","No","",""
"15","63e527c0f1126787252598ea","svTrial","survey",22,304505,"0.0-2.0-20.0","65553732575bb29198a888d7","655658ca63dc0055f01b4701",3,"14414","Niigata_large_pos_4_1.jpg",NA,NA,NA,NA,NA,NA,NA,NA,NA,NA,NA,NA,NA,NA,NA,NA,"[]","middle",2,"pos",4,15,5,5,3,4,4,1,"02745","27","female","woman","","caucasian","","No","",""
"16","63e527c0f1126787252598ea","svTrial","survey",23,355273,"0.0-2.0-21.0","65553732575bb29198a888d7","655658ca63dc0055f01b4701",3,"50751","Akita_large_sch_10_1.jpg",NA,NA,NA,NA,NA,NA,NA,NA,NA,NA,NA,NA,NA,NA,NA,NA,"[]","small",2,"pos",10,16,4,3,2,5,4,1,"02745","27","female","woman","","caucasian","","No","",""
"17","63e527c0f1126787252598ea","svTrial","survey",24,365568,"0.0-2.0-22.0","65553732575bb29198a888d7","655658ca63dc0055f01b4701",3,"10272","Kanagawa_middle_pos_2_2.jpg",NA,NA,NA,NA,NA,NA,NA,NA,NA,NA,NA,NA,NA,NA,NA,NA,"[]","small",1,"pos",2,17,5,3,2,4,3,1,"02745","27","female","woman","","caucasian","","No","",""
"18","63e527c0f1126787252598ea","svTrial","survey",25,380765,"0.0-2.0-23.0","65553732575bb29198a888d7","655658ca63dc0055f01b4701",3,"15179","Hokkaido_large_sch_4_3.jpg",NA,NA,NA,NA,NA,NA,NA,NA,NA,NA,NA,NA,NA,NA,NA,NA,"[]","small",1,"sch",4,18,2,1,4,2,1,1,"02745","27","female","woman","","caucasian","","No","",""
"19","63e527c0f1126787252598ea","svTrial","survey",26,402654,"0.0-2.0-24.0","65553732575bb29198a888d7","655658ca63dc0055f01b4701",3,"21872","Hokkaido_middle_sch_6_1.jpg",NA,NA,NA,NA,NA,NA,NA,NA,NA,NA,NA,NA,NA,NA,NA,NA,"[]","small",1,"sch",6,19,5,5,2,5,3,1,"02745","27","female","woman","","caucasian","","No","",""
"20","63e527c0f1126787252598ea","svTrial","survey",27,421150,"0.0-2.0-25.0","65553732575bb29198a888d7","655658ca63dc0055f01b4701",3,"18477","Akita_small_sch_1_0.jpg",NA,NA,NA,NA,NA,NA,NA,NA,NA,NA,NA,NA,NA,NA,NA,NA,"[]","middle",2,"sch",1,20,4,2,4,3,3,1,"02745","27","female","woman","","caucasian","","No","",""
"21","63e527c0f1126787252598ea","svTrial","survey",28,454015,"0.0-2.0-26.0","65553732575bb29198a888d7","655658ca63dc0055f01b4701",3,"32850","Toyama_large_pos_12_2.jpg",NA,NA,NA,NA,NA,NA,NA,NA,NA,NA,NA,NA,NA,NA,NA,NA,"[]","large",2,"sch",12,21,2,3,3,2,1,1,"02745","27","female","woman","","caucasian","","No","",""
"22","63e527c0f1126787252598ea","svTrial","survey",29,482199,"0.0-2.0-27.0","65553732575bb29198a888d7","655658ca63dc0055f01b4701",3,"28169","Kanagawa_large_pos_7_2.jpg",NA,NA,NA,NA,NA,NA,NA,NA,NA,NA,NA,NA,NA,NA,NA,NA,"[]","small",1,"pos",7,22,3,4,3,3,2,1,"02745","27","female","woman","","caucasian","","No","",""
"23","63e527c0f1126787252598ea","svTrial","survey",30,499109,"0.0-2.0-28.0","65553732575bb29198a888d7","655658ca63dc0055f01b4701",3,"16887","Okinawa_middle_pos_6_2.jpg",NA,NA,NA,NA,NA,NA,NA,NA,NA,NA,NA,NA,NA,NA,NA,NA,"[]","large",1,"pos",6,23,5,4,3,5,4,1,"02745","27","female","woman","","caucasian","","No","",""
"24","63e527c0f1126787252598ea","svTrial","survey",31,514057,"0.0-2.0-29.0","65553732575bb29198a888d7","655658ca63dc0055f01b4701",3,"14930","Hokkaido_large_sch_3_0.jpg",NA,NA,NA,NA,NA,NA,NA,NA,NA,NA,NA,NA,NA,NA,NA,NA,"[]","small",1,"sch",3,24,3,2,5,4,5,1,"02745","27","female","woman","","caucasian","","No","",""
"25","63e527c0f1126787252598ea","svTrial","survey",33,544336,"0.0-2.0-31.0","65553732575bb29198a888d7","655658ca63dc0055f01b4701",3,"14468","Ishikawa_large_pos_3_0.jpg",NA,NA,NA,NA,NA,NA,NA,NA,NA,NA,NA,NA,NA,NA,NA,NA,"[]","large",2,"pos",3,25,5,3,4,2,4,1,"02745","27","female","woman","","caucasian","","No","",""
"26","63e527c0f1126787252598ea","svTrial","survey",34,556676,"0.0-2.0-32.0","65553732575bb29198a888d7","655658ca63dc0055f01b4701",3,"12316","Kanagawa_small_pos_1_3.jpg",NA,NA,NA,NA,NA,NA,NA,NA,NA,NA,NA,NA,NA,NA,NA,NA,"[]","middle",1,"sch",1,26,5,5,3,5,5,1,"02745","27","female","woman","","caucasian","","No","",""
"27","63e527c0f1126787252598ea","svTrial","survey",35,570619,"0.0-2.0-33.0","65553732575bb29198a888d7","655658ca63dc0055f01b4701",3,"13923","Toyama_large_sch_8_3.jpg",NA,NA,NA,NA,NA,NA,NA,NA,NA,NA,NA,NA,NA,NA,NA,NA,"[]","small",2,"pos",8,27,5,5,3,4,4,1,"02745","27","female","woman","","caucasian","","No","",""
"28","63e527c0f1126787252598ea","svTrial","survey",36,584917,"0.0-2.0-34.0","65553732575bb29198a888d7","655658ca63dc0055f01b4701",3,"14282","Ishikawa_middle_pos_6_0.jpg",NA,NA,NA,NA,NA,NA,NA,NA,NA,NA,NA,NA,NA,NA,NA,NA,"[]","middle",2,"pos",6,28,5,4,4,5,5,1,"02745","27","female","woman","","caucasian","","No","",""
"29","63e527c0f1126787252598ea","svTrial","survey",38,650552,"0.0-2.0-36.0","65553732575bb29198a888d7","655658ca63dc0055f01b4701",3,"52315","Okinawa_middle_pos_4_3.jpg",NA,NA,NA,NA,NA,NA,NA,NA,NA,NA,NA,NA,NA,NA,NA,NA,"[]","small",1,"sch",4,29,5,5,4,5,4,1,"02745","27","female","woman","","caucasian","","No","",""
"30","63e527c0f1126787252598ea","svTrial","survey",39,663157,"0.0-2.0-37.0","65553732575bb29198a888d7","655658ca63dc0055f01b4701",3,"12586","Toyama_middle_pos_1_3.jpg",NA,NA,NA,NA,NA,NA,NA,NA,NA,NA,NA,NA,NA,NA,NA,NA,"[]","middle",2,"pos",1,30,5,3,4,5,4,1,"02745","27","female","woman","","caucasian","","No","",""
"31","63e527c0f1126787252598ea","svTrial","survey",40,679492,"0.0-2.0-38.0","65553732575bb29198a888d7","655658ca63dc0055f01b4701",3,"16312","Toyama_large_sch_4_2.jpg",NA,NA,NA,NA,NA,NA,NA,NA,NA,NA,NA,NA,NA,NA,NA,NA,"[]","small",2,"sch",4,31,5,3,4,5,3,1,"02745","27","female","woman","","caucasian","","No","",""
"32","63e527c0f1126787252598ea","svTrial","survey",41,686857,"0.0-2.0-39.0","65553732575bb29198a888d7","655658ca63dc0055f01b4701",3,"7344","Akita_large_sch_1_3.jpg",NA,NA,NA,NA,NA,NA,NA,NA,NA,NA,NA,NA,NA,NA,NA,NA,"[]","small",2,"pos",1,32,5,5,5,5,5,1,"02745","27","female","woman","","caucasian","","No","",""
"33","63e527c0f1126787252598ea","svTrial","survey",42,734242,"0.0-2.0-40.0","65553732575bb29198a888d7","655658ca63dc0055f01b4701",3,"47368","Kanagawa_middle_sch_2_0.jpg",NA,NA,NA,NA,NA,NA,NA,NA,NA,NA,NA,NA,NA,NA,NA,NA,"[]","large",1,"sch",2,33,1,1,3,1,1,1,"02745","27","female","woman","","caucasian","","No","",""
"34","63e527c0f1126787252598ea","svTrial","survey",43,768107,"0.0-2.0-41.0","65553732575bb29198a888d7","655658ca63dc0055f01b4701",3,"33848","Hokkaido_middle_pos_1_1.jpg",NA,NA,NA,NA,NA,NA,NA,NA,NA,NA,NA,NA,NA,NA,NA,NA,"[]","small",1,"sch",1,34,4,3,5,3,3,1,"02745","27","female","woman","","caucasian","","No","",""
"35","63e527c0f1126787252598ea","svTrial","survey",44,776493,"0.0-2.0-42.0","65553732575bb29198a888d7","655658ca63dc0055f01b4701",3,"8369","Niigata_large_sch_3_1.jpg",NA,NA,NA,NA,NA,NA,NA,NA,NA,NA,NA,NA,NA,NA,NA,NA,"[]","large",2,"sch",3,35,5,5,5,5,5,1,"02745","27","female","woman","","caucasian","","No","",""
"36","63e527c0f1126787252598ea","svTrial","survey",45,819639,"0.0-2.0-43.0","65553732575bb29198a888d7","655658ca63dc0055f01b4701",3,"43129","Okinawa_large_pos_1_1.jpg",NA,NA,NA,NA,NA,NA,NA,NA,NA,NA,NA,NA,NA,NA,NA,NA,"[]","large",1,"sch",1,36,4,3,5,4,2,1,"02745","27","female","woman","","caucasian","","No","",""
"37","63e527c0f1126787252598ea","svTrial","survey",46,834973,"0.0-2.0-44.0","65553732575bb29198a888d7","655658ca63dc0055f01b4701",3,"15314","Niigata_small_pos_1_2.jpg",NA,NA,NA,NA,NA,NA,NA,NA,NA,NA,NA,NA,NA,NA,NA,NA,"[]","small",2,"pos",1,37,4,2,5,3,3,1,"02745","27","female","woman","","caucasian","","No","",""
"38","63e527c0f1126787252598ea","svTrial","survey",47,850593,"0.0-2.0-45.0","65553732575bb29198a888d7","655658ca63dc0055f01b4701",3,"15602","Niigata_middle_pos_1_1.jpg",NA,NA,NA,NA,NA,NA,NA,NA,NA,NA,NA,NA,NA,NA,NA,NA,"[]","middle",2,"pos",1,38,2,1,5,2,2,1,"02745","27","female","woman","","caucasian","","No","",""
"39","63e527c0f1126787252598ea","svTrial","survey",48,877443,"0.0-2.0-46.0","65553732575bb29198a888d7","655658ca63dc0055f01b4701",3,"26829","Hokkaido_middle_sch_2_3.jpg",NA,NA,NA,NA,NA,NA,NA,NA,NA,NA,NA,NA,NA,NA,NA,NA,"[]","small",1,"pos",2,39,2,1,3,1,1,1,"02745","27","female","woman","","caucasian","","No","",""
"40","63e527c0f1126787252598ea","svTrial","survey",49,890573,"0.0-2.0-47.0","65553732575bb29198a888d7","655658ca63dc0055f01b4701",3,"13108","Hokkaido_large_sch_11_1.jpg",NA,NA,NA,NA,NA,NA,NA,NA,NA,NA,NA,NA,NA,NA,NA,NA,"[]","large",1,"sch",11,40,5,4,4,3,3,1,"02745","27","female","woman","","caucasian","","No","",""
"41","63e527c0f1126787252598ea","svTrial","survey",50,902723,"0.0-2.0-48.0","65553732575bb29198a888d7","655658ca63dc0055f01b4701",3,"12133","Ishikawa_large_pos_5_0.jpg",NA,NA,NA,NA,NA,NA,NA,NA,NA,NA,NA,NA,NA,NA,NA,NA,"[]","large",2,"pos",5,41,5,5,3,5,4,1,"02745","27","female","woman","","caucasian","","No","",""
"42","63e527c0f1126787252598ea","svTrial","survey",51,925431,"0.0-2.0-49.0","65553732575bb29198a888d7","655658ca63dc0055f01b4701",3,"22690","Hokkaido_large_pos_4_2.jpg",NA,NA,NA,NA,NA,NA,NA,NA,NA,NA,NA,NA,NA,NA,NA,NA,"[]","middle",1,"sch",4,42,3,4,2,5,4,1,"02745","27","female","woman","","caucasian","","No","",""
"43","63e527c0f1126787252598ea","svTrial","survey",52,1029745,"0.0-2.0-50.0","65553732575bb29198a888d7","655658ca63dc0055f01b4701",3,"104297","Toyama_large_pos_5_3.jpg",NA,NA,NA,NA,NA,NA,NA,NA,NA,NA,NA,NA,NA,NA,NA,NA,"[]","small",2,"pos",5,43,5,5,2,4,5,1,"02745","27","female","woman","","caucasian","","No","",""
"44","63e527c0f1126787252598ea","svTrial","survey",53,1038895,"0.0-2.0-51.0","65553732575bb29198a888d7","655658ca63dc0055f01b4701",3,"9134","Kanagawa_large_pos_4_0.jpg",NA,NA,NA,NA,NA,NA,NA,NA,NA,NA,NA,NA,NA,NA,NA,NA,"[]","small",1,"pos",4,44,5,5,4,5,5,1,"02745","27","female","woman","","caucasian","","No","",""
"45","63e527c0f1126787252598ea","svTrial","survey",54,1041003,"0.0-2.0-52.0","65553732575bb29198a888d7","655658ca63dc0055f01b4701",3,"2091","Kanagawa_middle_sch_1_3.jpg",NA,NA,NA,NA,NA,NA,NA,NA,NA,NA,NA,NA,NA,NA,NA,NA,"[]","small",1,"sch",1,45,NA,NA,NA,NA,NA,1,"02745","27","female","woman","","caucasian","","No","",""
"46","63e527c0f1126787252598ea","svTrial","survey",55,1051725,"0.0-2.0-53.0","65553732575bb29198a888d7","655658ca63dc0055f01b4701",3,"10704","Ishikawa_large_pos_6_2.jpg",NA,NA,NA,NA,NA,NA,NA,NA,NA,NA,NA,NA,NA,NA,NA,NA,"[]","middle",2,"pos",6,46,5,5,5,5,5,1,"02745","27","female","woman","","caucasian","","No","",""
"47","63e527c0f1126787252598ea","svTrial","survey",56,1069438,"0.0-2.0-54.0","65553732575bb29198a888d7","655658ca63dc0055f01b4701",3,"17696","Tokyo_middle_pos_5_0.jpg",NA,NA,NA,NA,NA,NA,NA,NA,NA,NA,NA,NA,NA,NA,NA,NA,"[]","small",1,"sch",5,47,5,3,3,4,5,1,"02745","27","female","woman","","caucasian","","No","",""
"48","63e527c0f1126787252598ea","svTrial","survey",57,1087701,"0.0-2.0-55.0","65553732575bb29198a888d7","655658ca63dc0055f01b4701",3,"18246","Okinawa_large_sch_2_2.jpg",NA,NA,NA,NA,NA,NA,NA,NA,NA,NA,NA,NA,NA,NA,NA,NA,"[]","small",1,"sch",2,48,3,3,2,3,5,1,"02745","27","female","woman","","caucasian","","No","",""
