"","subject_id","task","trial_type","trial_index","time_elapsed","internal_node_id","study_id","session_id","group","rt","stimulus","width","height","webaudio","browser","browser_version","mobile","os","fullscreen","vsync_rate","webcam","microphone","success","timeout","failed_images","failed_audio","failed_video","accuracy","size","culture","loct","number","document.id","ambiguous","objects","invisible","chaos","complex","passedChecks","zipcode","age","sex","gender","gender-self-describe","ethnicity","ethnicity-self-describe","outsideUS","outsideUS_years","surveyComments"
"1","63ea4735e283a1670ea382f4","svTrial","survey",8,208660,"0.0-2.0-6.0","65553732575bb29198a888d7","65565a96186c4419786dce12",8,"68728","Akita_large_pos_4_3.jpg",NA,NA,NA,NA,NA,NA,NA,NA,NA,NA,NA,NA,NA,NA,NA,NA,"[]","middle",2,"pos",4,1,2,3,1,2,2,1,"21921","31","female","woman","","caucasian","","No","","N/a"
"2","63ea4735e283a1670ea382f4","svTrial","survey",9,259506,"0.0-2.0-7.0","65553732575bb29198a888d7","65565a96186c4419786dce12",8,"50677","Kanagawa_large_pos_2_2.jpg",NA,NA,NA,NA,NA,NA,NA,NA,NA,NA,NA,NA,NA,NA,NA,NA,"[]","small",1,"pos",2,2,3,1,4,3,3,1,"21921","31","female","woman","","caucasian","","No","","N/a"
"3","63ea4735e283a1670ea382f4","svTrial","survey",10,294030,"0.0-2.0-8.0","65553732575bb29198a888d7","65565a96186c4419786dce12",8,"34387","Toyama_large_sch_6_1.jpg",NA,NA,NA,NA,NA,NA,NA,NA,NA,NA,NA,NA,NA,NA,NA,NA,"[]","middle",2,"sch",6,3,2,1,3,2,1,1,"21921","31","female","woman","","caucasian","","No","","N/a"
"4","63ea4735e283a1670ea382f4","svTrial","survey",11,320295,"0.0-2.0-9.0","65553732575bb29198a888d7","65565a96186c4419786dce12",8,"26131","Ishikawa_middle_pos_4_3.jpg",NA,NA,NA,NA,NA,NA,NA,NA,NA,NA,NA,NA,NA,NA,NA,NA,"[]","large",2,"sch",4,4,1,2,1,1,1,1,"21921","31","female","woman","","caucasian","","No","","N/a"
"5","63ea4735e283a1670ea382f4","svTrial","survey",12,348107,"0.0-2.0-10.0","65553732575bb29198a888d7","65565a96186c4419786dce12",8,"27693","Toyama_middle_sch_4_0.jpg",NA,NA,NA,NA,NA,NA,NA,NA,NA,NA,NA,NA,NA,NA,NA,NA,"[]","middle",2,"sch",4,5,2,1,1,1,1,1,"21921","31","female","woman","","caucasian","","No","","N/a"
"6","63ea4735e283a1670ea382f4","svTrial","survey",13,368911,"0.0-2.0-11.0","65553732575bb29198a888d7","65565a96186c4419786dce12",8,"20704","Okinawa_middle_sch_5_1.jpg",NA,NA,NA,NA,NA,NA,NA,NA,NA,NA,NA,NA,NA,NA,NA,NA,"[]","small",1,"sch",5,6,1,1,1,1,1,1,"21921","31","female","woman","","caucasian","","No","","N/a"
"7","63ea4735e283a1670ea382f4","svTrial","survey",14,424328,"0.0-2.0-12.0","65553732575bb29198a888d7","65565a96186c4419786dce12",8,"55303","Okinawa_small_pos_1_0.jpg",NA,NA,NA,NA,NA,NA,NA,NA,NA,NA,NA,NA,NA,NA,NA,NA,"[]","large",1,"sch",1,7,2,1,2,3,3,1,"21921","31","female","woman","","caucasian","","No","","N/a"
"8","63ea4735e283a1670ea382f4","svTrial","survey",15,482930,"0.0-2.0-13.0","65553732575bb29198a888d7","65565a96186c4419786dce12",8,"58495","Toyama_large_sch_2_2.jpg",NA,NA,NA,NA,NA,NA,NA,NA,NA,NA,NA,NA,NA,NA,NA,NA,"[]","large",2,"pos",2,8,3,2,3,3,3,1,"21921","31","female","woman","","caucasian","","No","","N/a"
"9","63ea4735e283a1670ea382f4","svTrial","survey",16,642510,"0.0-2.0-14.0","65553732575bb29198a888d7","65565a96186c4419786dce12",8,"157615","Ishikawa_small_sch_2_3.jpg",NA,NA,NA,NA,NA,NA,NA,NA,NA,NA,NA,NA,NA,NA,NA,NA,"[]","large",2,"sch",2,9,1,1,1,1,1,1,"21921","31","female","woman","","caucasian","","No","","N/a"
"10","63ea4735e283a1670ea382f4","svTrial","survey",17,837253,"0.0-2.0-15.0","65553732575bb29198a888d7","65565a96186c4419786dce12",8,"194623","Kanagawa_large_pos_11_1.jpg",NA,NA,NA,NA,NA,NA,NA,NA,NA,NA,NA,NA,NA,NA,NA,NA,"[]","large",1,"pos",11,10,2,1,1,2,2,1,"21921","31","female","woman","","caucasian","","No","","N/a"
"11","63ea4735e283a1670ea382f4","svTrial","survey",18,974374,"0.0-2.0-16.0","65553732575bb29198a888d7","65565a96186c4419786dce12",8,"137001","Hokkaido_large_pos_7_3.jpg",NA,NA,NA,NA,NA,NA,NA,NA,NA,NA,NA,NA,NA,NA,NA,NA,"[]","middle",1,"sch",7,11,2,3,2,2,NA,1,"21921","31","female","woman","","caucasian","","No","","N/a"
"12","63ea4735e283a1670ea382f4","svTrial","survey",19,1068205,"0.0-2.0-17.0","65553732575bb29198a888d7","65565a96186c4419786dce12",8,"93733","Tokyo_large_pos_8_3.jpg",NA,NA,NA,NA,NA,NA,NA,NA,NA,NA,NA,NA,NA,NA,NA,NA,"[]","small",1,"sch",8,12,2,3,3,3,3,1,"21921","31","female","woman","","caucasian","","No","","N/a"
"13","63ea4735e283a1670ea382f4","svTrial","survey",20,1111752,"0.0-2.0-18.0","65553732575bb29198a888d7","65565a96186c4419786dce12",8,"43447","Tokyo_large_sch_1_2.jpg",NA,NA,NA,NA,NA,NA,NA,NA,NA,NA,NA,NA,NA,NA,NA,NA,"[]","middle",1,"pos",1,13,4,3,3,3,2,1,"21921","31","female","woman","","caucasian","","No","","N/a"
"14","63ea4735e283a1670ea382f4","svTrial","survey",21,1158360,"0.0-2.0-19.0","65553732575bb29198a888d7","65565a96186c4419786dce12",8,"46502","Hokkaido_large_sch_10_3.jpg",NA,NA,NA,NA,NA,NA,NA,NA,NA,NA,NA,NA,NA,NA,NA,NA,"[]","large",1,"pos",10,14,5,2,3,2,2,1,"21921","31","female","woman","","caucasian","","No","","N/a"
"15","63ea4735e283a1670ea382f4","svTrial","survey",22,1186594,"0.0-2.0-20.0","65553732575bb29198a888d7","65565a96186c4419786dce12",8,"28131","Kanagawa_large_sch_10_0.jpg",NA,NA,NA,NA,NA,NA,NA,NA,NA,NA,NA,NA,NA,NA,NA,NA,"[]","large",1,"pos",10,15,3,3,4,2,3,1,"21921","31","female","woman","","caucasian","","No","","N/a"
"16","63ea4735e283a1670ea382f4","svTrial","survey",23,1204721,"0.0-2.0-21.0","65553732575bb29198a888d7","65565a96186c4419786dce12",8,"18014","Tokyo_small_sch_2_1.jpg",NA,NA,NA,NA,NA,NA,NA,NA,NA,NA,NA,NA,NA,NA,NA,NA,"[]","small",1,"pos",2,16,1,1,2,2,1,1,"21921","31","female","woman","","caucasian","","No","","N/a"
"17","63ea4735e283a1670ea382f4","svTrial","survey",24,1236530,"0.0-2.0-22.0","65553732575bb29198a888d7","65565a96186c4419786dce12",8,"31708","Hokkaido_large_pos_2_0.jpg",NA,NA,NA,NA,NA,NA,NA,NA,NA,NA,NA,NA,NA,NA,NA,NA,"[]","small",1,"sch",2,17,2,1,1,1,1,1,"21921","31","female","woman","","caucasian","","No","","N/a"
"18","63ea4735e283a1670ea382f4","svTrial","survey",25,1255159,"0.0-2.0-23.0","65553732575bb29198a888d7","65565a96186c4419786dce12",8,"18523","Tokyo_large_sch_5_2.jpg",NA,NA,NA,NA,NA,NA,NA,NA,NA,NA,NA,NA,NA,NA,NA,NA,"[]","large",1,"sch",5,18,1,1,1,1,1,1,"21921","31","female","woman","","caucasian","","No","","N/a"
"19","63ea4735e283a1670ea382f4","svTrial","survey",26,1288302,"0.0-2.0-24.0","65553732575bb29198a888d7","65565a96186c4419786dce12",8,"33053","Kanagawa_middle_sch_7_1.jpg",NA,NA,NA,NA,NA,NA,NA,NA,NA,NA,NA,NA,NA,NA,NA,NA,"[]","large",1,"pos",7,19,4,2,3,2,3,1,"21921","31","female","woman","","caucasian","","No","","N/a"
"20","63ea4735e283a1670ea382f4","svTrial","survey",27,1340524,"0.0-2.0-25.0","65553732575bb29198a888d7","65565a96186c4419786dce12",8,"52121","Kanagawa_large_pos_6_1.jpg",NA,NA,NA,NA,NA,NA,NA,NA,NA,NA,NA,NA,NA,NA,NA,NA,"[]","small",1,"sch",6,20,2,3,4,2,2,1,"21921","31","female","woman","","caucasian","","No","","N/a"
"21","63ea4735e283a1670ea382f4","svTrial","survey",28,1358140,"0.0-2.0-26.0","65553732575bb29198a888d7","65565a96186c4419786dce12",8,"17511","Niigata_large_pos_2_3.jpg",NA,NA,NA,NA,NA,NA,NA,NA,NA,NA,NA,NA,NA,NA,NA,NA,"[]","middle",2,"pos",2,21,3,3,3,3,3,1,"21921","31","female","woman","","caucasian","","No","","N/a"
"22","63ea4735e283a1670ea382f4","svTrial","survey",29,1384826,"0.0-2.0-27.0","65553732575bb29198a888d7","65565a96186c4419786dce12",8,"26588","Ishikawa_middle_pos_8_0.jpg",NA,NA,NA,NA,NA,NA,NA,NA,NA,NA,NA,NA,NA,NA,NA,NA,"[]","small",2,"sch",8,22,3,4,4,3,3,1,"21921","31","female","woman","","caucasian","","No","","N/a"
"23","63ea4735e283a1670ea382f4","svTrial","survey",30,1406072,"0.0-2.0-28.0","65553732575bb29198a888d7","65565a96186c4419786dce12",8,"21145","Kanagawa_small_pos_4_3.jpg",NA,NA,NA,NA,NA,NA,NA,NA,NA,NA,NA,NA,NA,NA,NA,NA,"[]","middle",1,"pos",4,23,1,1,2,2,1,1,"21921","31","female","woman","","caucasian","","No","","N/a"
"24","63ea4735e283a1670ea382f4","svTrial","survey",31,1431596,"0.0-2.0-29.0","65553732575bb29198a888d7","65565a96186c4419786dce12",8,"25415","Akita_middle_pos_3_2.jpg",NA,NA,NA,NA,NA,NA,NA,NA,NA,NA,NA,NA,NA,NA,NA,NA,"[]","middle",2,"pos",3,24,1,1,1,1,1,1,"21921","31","female","woman","","caucasian","","No","","N/a"
"25","63ea4735e283a1670ea382f4","svTrial","survey",33,1473920,"0.0-2.0-31.0","65553732575bb29198a888d7","65565a96186c4419786dce12",8,"26442","Toyama_large_pos_2_0.jpg",NA,NA,NA,NA,NA,NA,NA,NA,NA,NA,NA,NA,NA,NA,NA,NA,"[]","large",2,"sch",2,25,1,1,1,1,1,1,"21921","31","female","woman","","caucasian","","No","","N/a"
"26","63ea4735e283a1670ea382f4","svTrial","survey",34,1490476,"0.0-2.0-32.0","65553732575bb29198a888d7","65565a96186c4419786dce12",8,"16454","Akita_middle_pos_7_3.jpg",NA,NA,NA,NA,NA,NA,NA,NA,NA,NA,NA,NA,NA,NA,NA,NA,"[]","middle",2,"pos",7,26,1,1,1,1,1,1,"21921","31","female","woman","","caucasian","","No","","N/a"
"27","63ea4735e283a1670ea382f4","svTrial","survey",35,1534142,"0.0-2.0-33.0","65553732575bb29198a888d7","65565a96186c4419786dce12",8,"43575","Akita_middle_pos_2_2.jpg",NA,NA,NA,NA,NA,NA,NA,NA,NA,NA,NA,NA,NA,NA,NA,NA,"[]","large",2,"sch",2,27,2,2,1,2,1,1,"21921","31","female","woman","","caucasian","","No","","N/a"
"28","63ea4735e283a1670ea382f4","svTrial","survey",36,1563636,"0.0-2.0-34.0","65553732575bb29198a888d7","65565a96186c4419786dce12",8,"29396","Toyama_middle_pos_6_0.jpg",NA,NA,NA,NA,NA,NA,NA,NA,NA,NA,NA,NA,NA,NA,NA,NA,"[]","small",2,"pos",6,28,1,2,3,1,1,1,"21921","31","female","woman","","caucasian","","No","","N/a"
"29","63ea4735e283a1670ea382f4","svTrial","survey",37,1598400,"0.0-2.0-35.0","65553732575bb29198a888d7","65565a96186c4419786dce12",8,"34677","Niigata_small_sch_3_0.jpg",NA,NA,NA,NA,NA,NA,NA,NA,NA,NA,NA,NA,NA,NA,NA,NA,"[]","middle",2,"sch",3,29,1,1,3,1,1,1,"21921","31","female","woman","","caucasian","","No","","N/a"
"30","63ea4735e283a1670ea382f4","svTrial","survey",38,1612096,"0.0-2.0-36.0","65553732575bb29198a888d7","65565a96186c4419786dce12",8,"13589","Okinawa_large_pos_11_2.jpg",NA,NA,NA,NA,NA,NA,NA,NA,NA,NA,NA,NA,NA,NA,NA,NA,"[]","large",1,"pos",11,30,1,1,1,1,1,1,"21921","31","female","woman","","caucasian","","No","","N/a"
"31","63ea4735e283a1670ea382f4","svTrial","survey",39,1654256,"0.0-2.0-37.0","65553732575bb29198a888d7","65565a96186c4419786dce12",8,"42067","Tokyo_middle_pos_2_0.jpg",NA,NA,NA,NA,NA,NA,NA,NA,NA,NA,NA,NA,NA,NA,NA,NA,"[]","large",1,"pos",2,31,2,2,1,1,2,1,"21921","31","female","woman","","caucasian","","No","","N/a"
"32","63ea4735e283a1670ea382f4","svTrial","survey",41,1685106,"0.0-2.0-39.0","65553732575bb29198a888d7","65565a96186c4419786dce12",8,"17636","Niigata_middle_pos_4_0.jpg",NA,NA,NA,NA,NA,NA,NA,NA,NA,NA,NA,NA,NA,NA,NA,NA,"[]","small",2,"pos",4,32,2,3,5,3,3,1,"21921","31","female","woman","","caucasian","","No","","N/a"
"33","63ea4735e283a1670ea382f4","svTrial","survey",42,1707124,"0.0-2.0-40.0","65553732575bb29198a888d7","65565a96186c4419786dce12",8,"21922","Hokkaido_middle_pos_7_1.jpg",NA,NA,NA,NA,NA,NA,NA,NA,NA,NA,NA,NA,NA,NA,NA,NA,"[]","small",1,"sch",7,33,1,2,2,1,2,1,"21921","31","female","woman","","caucasian","","No","","N/a"
"34","63ea4735e283a1670ea382f4","svTrial","survey",43,1729491,"0.0-2.0-41.0","65553732575bb29198a888d7","65565a96186c4419786dce12",8,"22274","Ishikawa_large_sch_11_2.jpg",NA,NA,NA,NA,NA,NA,NA,NA,NA,NA,NA,NA,NA,NA,NA,NA,"[]","small",2,"pos",11,34,1,1,1,1,1,1,"21921","31","female","woman","","caucasian","","No","","N/a"
"35","63ea4735e283a1670ea382f4","svTrial","survey",44,1755392,"0.0-2.0-42.0","65553732575bb29198a888d7","65565a96186c4419786dce12",8,"25791","Okinawa_middle_pos_8_0.jpg",NA,NA,NA,NA,NA,NA,NA,NA,NA,NA,NA,NA,NA,NA,NA,NA,"[]","small",1,"pos",8,35,2,1,3,3,2,1,"21921","31","female","woman","","caucasian","","No","","N/a"
"36","63ea4735e283a1670ea382f4","svTrial","survey",45,1772458,"0.0-2.0-43.0","65553732575bb29198a888d7","65565a96186c4419786dce12",8,"16960","Akita_small_sch_2_3.jpg",NA,NA,NA,NA,NA,NA,NA,NA,NA,NA,NA,NA,NA,NA,NA,NA,"[]","small",2,"pos",2,36,1,1,2,2,1,1,"21921","31","female","woman","","caucasian","","No","","N/a"
"37","63ea4735e283a1670ea382f4","svTrial","survey",46,1792203,"0.0-2.0-44.0","65553732575bb29198a888d7","65565a96186c4419786dce12",8,"19648","Toyama_small_pos_1_3.jpg",NA,NA,NA,NA,NA,NA,NA,NA,NA,NA,NA,NA,NA,NA,NA,NA,"[]","small",2,"pos",1,37,1,1,1,1,1,1,"21921","31","female","woman","","caucasian","","No","","N/a"
"38","63ea4735e283a1670ea382f4","svTrial","survey",47,1814318,"0.0-2.0-45.0","65553732575bb29198a888d7","65565a96186c4419786dce12",8,"22024","Ishikawa_large_pos_9_0.jpg",NA,NA,NA,NA,NA,NA,NA,NA,NA,NA,NA,NA,NA,NA,NA,NA,"[]","large",2,"pos",9,38,1,1,1,1,2,1,"21921","31","female","woman","","caucasian","","No","","N/a"
"39","63ea4735e283a1670ea382f4","svTrial","survey",48,1831968,"0.0-2.0-46.0","65553732575bb29198a888d7","65565a96186c4419786dce12",8,"17547","Niigata_middle_sch_6_3.jpg",NA,NA,NA,NA,NA,NA,NA,NA,NA,NA,NA,NA,NA,NA,NA,NA,"[]","large",2,"sch",6,39,3,1,3,2,1,1,"21921","31","female","woman","","caucasian","","No","","N/a"
"40","63ea4735e283a1670ea382f4","svTrial","survey",49,1851098,"0.0-2.0-47.0","65553732575bb29198a888d7","65565a96186c4419786dce12",8,"19016","Niigata_middle_pos_2_1.jpg",NA,NA,NA,NA,NA,NA,NA,NA,NA,NA,NA,NA,NA,NA,NA,NA,"[]","large",2,"pos",2,40,1,1,3,2,2,1,"21921","31","female","woman","","caucasian","","No","","N/a"
"41","63ea4735e283a1670ea382f4","svTrial","survey",50,1869859,"0.0-2.0-48.0","65553732575bb29198a888d7","65565a96186c4419786dce12",8,"18645","Ishikawa_large_pos_12_3.jpg",NA,NA,NA,NA,NA,NA,NA,NA,NA,NA,NA,NA,NA,NA,NA,NA,"[]","small",2,"sch",12,41,2,3,4,3,3,1,"21921","31","female","woman","","caucasian","","No","","N/a"
"42","63ea4735e283a1670ea382f4","svTrial","survey",51,1892637,"0.0-2.0-49.0","65553732575bb29198a888d7","65565a96186c4419786dce12",8,"22676","Okinawa_large_sch_10_3.jpg",NA,NA,NA,NA,NA,NA,NA,NA,NA,NA,NA,NA,NA,NA,NA,NA,"[]","large",1,"sch",10,42,4,3,3,2,2,1,"21921","31","female","woman","","caucasian","","No","","N/a"
"43","63ea4735e283a1670ea382f4","svTrial","survey",52,1915175,"0.0-2.0-50.0","65553732575bb29198a888d7","65565a96186c4419786dce12",8,"22434","Okinawa_middle_pos_7_0.jpg",NA,NA,NA,NA,NA,NA,NA,NA,NA,NA,NA,NA,NA,NA,NA,NA,"[]","middle",1,"sch",7,43,4,3,3,4,3,1,"21921","31","female","woman","","caucasian","","No","","N/a"
"44","63ea4735e283a1670ea382f4","svTrial","survey",53,1935518,"0.0-2.0-51.0","65553732575bb29198a888d7","65565a96186c4419786dce12",8,"20230","Tokyo_middle_pos_1_0.jpg",NA,NA,NA,NA,NA,NA,NA,NA,NA,NA,NA,NA,NA,NA,NA,NA,"[]","large",1,"sch",1,44,3,3,4,3,3,1,"21921","31","female","woman","","caucasian","","No","","N/a"
"45","63ea4735e283a1670ea382f4","svTrial","survey",54,1953424,"0.0-2.0-52.0","65553732575bb29198a888d7","65565a96186c4419786dce12",8,"17777","Okinawa_small_sch_2_1.jpg",NA,NA,NA,NA,NA,NA,NA,NA,NA,NA,NA,NA,NA,NA,NA,NA,"[]","middle",1,"sch",2,45,2,1,2,1,1,1,"21921","31","female","woman","","caucasian","","No","","N/a"
"46","63ea4735e283a1670ea382f4","svTrial","survey",55,1975938,"0.0-2.0-53.0","65553732575bb29198a888d7","65565a96186c4419786dce12",8,"22422","Toyama_middle_sch_6_2.jpg",NA,NA,NA,NA,NA,NA,NA,NA,NA,NA,NA,NA,NA,NA,NA,NA,"[]","large",2,"pos",6,46,3,2,5,2,1,1,"21921","31","female","woman","","caucasian","","No","","N/a"
"47","63ea4735e283a1670ea382f4","svTrial","survey",56,2023900,"0.0-2.0-54.0","65553732575bb29198a888d7","65565a96186c4419786dce12",8,"47860","Toyama_middle_pos_3_1.jpg",NA,NA,NA,NA,NA,NA,NA,NA,NA,NA,NA,NA,NA,NA,NA,NA,"[]","large",2,"pos",3,47,4,2,5,3,2,1,"21921","31","female","woman","","caucasian","","No","","N/a"
"48","63ea4735e283a1670ea382f4","svTrial","survey",57,2049253,"0.0-2.0-55.0","65553732575bb29198a888d7","65565a96186c4419786dce12",8,"25251","Tokyo_large_pos_9_2.jpg",NA,NA,NA,NA,NA,NA,NA,NA,NA,NA,NA,NA,NA,NA,NA,NA,"[]","large",1,"pos",9,48,2,2,4,3,1,1,"21921","31","female","woman","","caucasian","","No","","N/a"
