"","subject_id","task","trial_type","trial_index","time_elapsed","internal_node_id","study_id","session_id","group","rt","stimulus","width","height","webaudio","browser","browser_version","mobile","os","fullscreen","vsync_rate","webcam","microphone","success","timeout","failed_images","failed_audio","failed_video","accuracy","size","culture","loct","number","document.id","ambiguous","objects","invisible","chaos","complex","passedChecks","zipcode","age","sex","gender","gender-self-describe","ethnicity","ethnicity-self-describe","outsideUS","outsideUS_years","surveyComments"
"1","63ebbd7af1c80715178e5586","svTrial","survey",8,65758,"0.0-2.0-6.0","65553732575bb29198a888d7","655659f669eff2d0d384972c",8,"25874","Niigata_middle_sch_6_0.jpg",NA,NA,NA,NA,NA,NA,NA,NA,NA,NA,NA,NA,NA,NA,NA,NA,"[]","large",2,"sch",6,1,2,4,4,3,4,1,"48127","30","male","man","","middle-eastern","","No","",""
"2","63ebbd7af1c80715178e5586","svTrial","survey",9,84599,"0.0-2.0-7.0","65553732575bb29198a888d7","655659f669eff2d0d384972c",8,"18829","Kanagawa_large_pos_11_2.jpg",NA,NA,NA,NA,NA,NA,NA,NA,NA,NA,NA,NA,NA,NA,NA,NA,"[]","large",1,"pos",11,2,2,4,5,2,4,1,"48127","30","male","man","","middle-eastern","","No","",""
"3","63ebbd7af1c80715178e5586","svTrial","survey",10,102790,"0.0-2.0-8.0","65553732575bb29198a888d7","655659f669eff2d0d384972c",8,"18182","Niigata_middle_pos_4_0.jpg",NA,NA,NA,NA,NA,NA,NA,NA,NA,NA,NA,NA,NA,NA,NA,NA,"[]","small",2,"pos",4,3,4,4,5,3,4,1,"48127","30","male","man","","middle-eastern","","No","",""
"4","63ebbd7af1c80715178e5586","svTrial","survey",11,118006,"0.0-2.0-9.0","65553732575bb29198a888d7","655659f669eff2d0d384972c",8,"15207","Ishikawa_small_sch_2_0.jpg",NA,NA,NA,NA,NA,NA,NA,NA,NA,NA,NA,NA,NA,NA,NA,NA,"[]","large",2,"sch",2,4,5,1,4,4,3,1,"48127","30","male","man","","middle-eastern","","No","",""
"5","63ebbd7af1c80715178e5586","svTrial","survey",12,129387,"0.0-2.0-10.0","65553732575bb29198a888d7","655659f669eff2d0d384972c",8,"11372","Niigata_small_sch_3_3.jpg",NA,NA,NA,NA,NA,NA,NA,NA,NA,NA,NA,NA,NA,NA,NA,NA,"[]","middle",2,"sch",3,5,2,2,2,3,3,1,"48127","30","male","man","","middle-eastern","","No","",""
"6","63ebbd7af1c80715178e5586","svTrial","survey",13,151217,"0.0-2.0-11.0","65553732575bb29198a888d7","655659f669eff2d0d384972c",8,"21822","Tokyo_middle_pos_2_1.jpg",NA,NA,NA,NA,NA,NA,NA,NA,NA,NA,NA,NA,NA,NA,NA,NA,"[]","large",1,"pos",2,6,3,4,4,4,3,1,"48127","30","male","man","","middle-eastern","","No","",""
"7","63ebbd7af1c80715178e5586","svTrial","survey",14,166952,"0.0-2.0-12.0","65553732575bb29198a888d7","655659f669eff2d0d384972c",8,"15727","Tokyo_middle_pos_1_3.jpg",NA,NA,NA,NA,NA,NA,NA,NA,NA,NA,NA,NA,NA,NA,NA,NA,"[]","large",1,"sch",1,7,4,2,2,4,3,1,"48127","30","male","man","","middle-eastern","","No","",""
"8","63ebbd7af1c80715178e5586","svTrial","survey",15,188364,"0.0-2.0-13.0","65553732575bb29198a888d7","655659f669eff2d0d384972c",8,"21405","Tokyo_large_pos_8_0.jpg",NA,NA,NA,NA,NA,NA,NA,NA,NA,NA,NA,NA,NA,NA,NA,NA,"[]","small",1,"sch",8,8,4,3,2,4,4,1,"48127","30","male","man","","middle-eastern","","No","",""
"9","63ebbd7af1c80715178e5586","svTrial","survey",16,276800,"0.0-2.0-14.0","65553732575bb29198a888d7","655659f669eff2d0d384972c",8,"88427","Tokyo_large_pos_9_0.jpg",NA,NA,NA,NA,NA,NA,NA,NA,NA,NA,NA,NA,NA,NA,NA,NA,"[]","large",1,"pos",9,9,2,2,5,4,3,1,"48127","30","male","man","","middle-eastern","","No","",""
"10","63ebbd7af1c80715178e5586","svTrial","survey",18,303452,"0.0-2.0-16.0","65553732575bb29198a888d7","655659f669eff2d0d384972c",8,"21256","Toyama_middle_sch_6_2.jpg",NA,NA,NA,NA,NA,NA,NA,NA,NA,NA,NA,NA,NA,NA,NA,NA,"[]","large",2,"pos",6,10,1,2,3,1,3,1,"48127","30","male","man","","middle-eastern","","No","",""
"11","63ebbd7af1c80715178e5586","svTrial","survey",19,319255,"0.0-2.0-17.0","65553732575bb29198a888d7","655659f669eff2d0d384972c",8,"15796","Kanagawa_small_pos_4_1.jpg",NA,NA,NA,NA,NA,NA,NA,NA,NA,NA,NA,NA,NA,NA,NA,NA,"[]","middle",1,"pos",4,11,4,2,3,4,2,1,"48127","30","male","man","","middle-eastern","","No","",""
"12","63ebbd7af1c80715178e5586","svTrial","survey",20,332251,"0.0-2.0-18.0","65553732575bb29198a888d7","655659f669eff2d0d384972c",8,"12989","Tokyo_large_sch_1_2.jpg",NA,NA,NA,NA,NA,NA,NA,NA,NA,NA,NA,NA,NA,NA,NA,NA,"[]","middle",1,"pos",1,12,3,3,3,3,3,1,"48127","30","male","man","","middle-eastern","","No","",""
"13","63ebbd7af1c80715178e5586","svTrial","survey",21,353318,"0.0-2.0-19.0","65553732575bb29198a888d7","655659f669eff2d0d384972c",8,"21060","Okinawa_small_pos_1_1.jpg",NA,NA,NA,NA,NA,NA,NA,NA,NA,NA,NA,NA,NA,NA,NA,NA,"[]","large",1,"sch",1,13,3,2,1,2,2,1,"48127","30","male","man","","middle-eastern","","No","",""
"14","63ebbd7af1c80715178e5586","svTrial","survey",22,371516,"0.0-2.0-20.0","65553732575bb29198a888d7","655659f669eff2d0d384972c",8,"18190","Tokyo_large_sch_5_3.jpg",NA,NA,NA,NA,NA,NA,NA,NA,NA,NA,NA,NA,NA,NA,NA,NA,"[]","large",1,"sch",5,14,4,2,4,3,4,1,"48127","30","male","man","","middle-eastern","","No","",""
"15","63ebbd7af1c80715178e5586","svTrial","survey",23,390182,"0.0-2.0-21.0","65553732575bb29198a888d7","655659f669eff2d0d384972c",8,"18658","Kanagawa_large_pos_2_2.jpg",NA,NA,NA,NA,NA,NA,NA,NA,NA,NA,NA,NA,NA,NA,NA,NA,"[]","small",1,"pos",2,15,1,3,2,2,2,1,"48127","30","male","man","","middle-eastern","","No","",""
"16","63ebbd7af1c80715178e5586","svTrial","survey",24,409120,"0.0-2.0-22.0","65553732575bb29198a888d7","655659f669eff2d0d384972c",8,"18929","Okinawa_large_pos_11_0.jpg",NA,NA,NA,NA,NA,NA,NA,NA,NA,NA,NA,NA,NA,NA,NA,NA,"[]","large",1,"pos",11,16,1,2,3,2,3,1,"48127","30","male","man","","middle-eastern","","No","",""
"17","63ebbd7af1c80715178e5586","svTrial","survey",25,419712,"0.0-2.0-23.0","65553732575bb29198a888d7","655659f669eff2d0d384972c",8,"10585","Niigata_middle_pos_2_1.jpg",NA,NA,NA,NA,NA,NA,NA,NA,NA,NA,NA,NA,NA,NA,NA,NA,"[]","large",2,"pos",2,17,NA,3,2,2,3,1,"48127","30","male","man","","middle-eastern","","No","",""
"18","63ebbd7af1c80715178e5586","svTrial","survey",26,438334,"0.0-2.0-24.0","65553732575bb29198a888d7","655659f669eff2d0d384972c",8,"18615","Toyama_large_sch_2_3.jpg",NA,NA,NA,NA,NA,NA,NA,NA,NA,NA,NA,NA,NA,NA,NA,NA,"[]","large",2,"pos",2,18,3,2,1,4,2,1,"48127","30","male","man","","middle-eastern","","No","",""
"19","63ebbd7af1c80715178e5586","svTrial","survey",27,449683,"0.0-2.0-25.0","65553732575bb29198a888d7","655659f669eff2d0d384972c",8,"11341","Toyama_middle_pos_6_2.jpg",NA,NA,NA,NA,NA,NA,NA,NA,NA,NA,NA,NA,NA,NA,NA,NA,"[]","small",2,"pos",6,19,2,3,5,3,3,1,"48127","30","male","man","","middle-eastern","","No","",""
"20","63ebbd7af1c80715178e5586","svTrial","survey",28,467193,"0.0-2.0-26.0","65553732575bb29198a888d7","655659f669eff2d0d384972c",8,"17504","Toyama_large_pos_2_3.jpg",NA,NA,NA,NA,NA,NA,NA,NA,NA,NA,NA,NA,NA,NA,NA,NA,"[]","large",2,"sch",2,20,4,3,5,4,4,1,"48127","30","male","man","","middle-eastern","","No","",""
"21","63ebbd7af1c80715178e5586","svTrial","survey",29,481833,"0.0-2.0-27.0","65553732575bb29198a888d7","655659f669eff2d0d384972c",8,"14633","Akita_middle_pos_3_2.jpg",NA,NA,NA,NA,NA,NA,NA,NA,NA,NA,NA,NA,NA,NA,NA,NA,"[]","middle",2,"pos",3,21,2,2,2,4,2,1,"48127","30","male","man","","middle-eastern","","No","",""
"22","63ebbd7af1c80715178e5586","svTrial","survey",30,499758,"0.0-2.0-28.0","65553732575bb29198a888d7","655659f669eff2d0d384972c",8,"17918","Kanagawa_large_sch_10_2.jpg",NA,NA,NA,NA,NA,NA,NA,NA,NA,NA,NA,NA,NA,NA,NA,NA,"[]","large",1,"pos",10,22,2,3,4,3,3,1,"48127","30","male","man","","middle-eastern","","No","",""
"23","63ebbd7af1c80715178e5586","svTrial","survey",31,513294,"0.0-2.0-29.0","65553732575bb29198a888d7","655659f669eff2d0d384972c",8,"13529","Hokkaido_middle_pos_7_3.jpg",NA,NA,NA,NA,NA,NA,NA,NA,NA,NA,NA,NA,NA,NA,NA,NA,"[]","small",1,"sch",7,23,1,3,4,3,3,1,"48127","30","male","man","","middle-eastern","","No","",""
"24","63ebbd7af1c80715178e5586","svTrial","survey",32,537778,"0.0-2.0-30.0","65553732575bb29198a888d7","655659f669eff2d0d384972c",8,"24477","Okinawa_large_sch_10_1.jpg",NA,NA,NA,NA,NA,NA,NA,NA,NA,NA,NA,NA,NA,NA,NA,NA,"[]","large",1,"sch",10,24,5,3,NA,4,NA,1,"48127","30","male","man","","middle-eastern","","No","",""
"25","63ebbd7af1c80715178e5586","svTrial","survey",34,567038,"0.0-2.0-32.0","65553732575bb29198a888d7","655659f669eff2d0d384972c",8,"25352","Kanagawa_middle_sch_7_1.jpg",NA,NA,NA,NA,NA,NA,NA,NA,NA,NA,NA,NA,NA,NA,NA,NA,"[]","large",1,"pos",7,25,2,4,3,2,3,1,"48127","30","male","man","","middle-eastern","","No","",""
"26","63ebbd7af1c80715178e5586","svTrial","survey",35,583923,"0.0-2.0-33.0","65553732575bb29198a888d7","655659f669eff2d0d384972c",8,"16877","Toyama_small_pos_1_3.jpg",NA,NA,NA,NA,NA,NA,NA,NA,NA,NA,NA,NA,NA,NA,NA,NA,"[]","small",2,"pos",1,26,1,1,1,1,1,1,"48127","30","male","man","","middle-eastern","","No","",""
"27","63ebbd7af1c80715178e5586","svTrial","survey",36,596652,"0.0-2.0-34.0","65553732575bb29198a888d7","655659f669eff2d0d384972c",8,"12722","Hokkaido_large_pos_7_1.jpg",NA,NA,NA,NA,NA,NA,NA,NA,NA,NA,NA,NA,NA,NA,NA,NA,"[]","middle",1,"sch",7,27,3,2,4,2,2,1,"48127","30","male","man","","middle-eastern","","No","",""
"28","63ebbd7af1c80715178e5586","svTrial","survey",37,620023,"0.0-2.0-35.0","65553732575bb29198a888d7","655659f669eff2d0d384972c",8,"23364","Tokyo_small_sch_2_2.jpg",NA,NA,NA,NA,NA,NA,NA,NA,NA,NA,NA,NA,NA,NA,NA,NA,"[]","small",1,"pos",2,28,5,5,2,4,4,1,"48127","30","male","man","","middle-eastern","","No","",""
"29","63ebbd7af1c80715178e5586","svTrial","survey",38,630218,"0.0-2.0-36.0","65553732575bb29198a888d7","655659f669eff2d0d384972c",8,"10189","Akita_middle_pos_7_3.jpg",NA,NA,NA,NA,NA,NA,NA,NA,NA,NA,NA,NA,NA,NA,NA,NA,"[]","middle",2,"pos",7,29,2,2,2,2,2,1,"48127","30","male","man","","middle-eastern","","No","",""
"30","63ebbd7af1c80715178e5586","svTrial","survey",39,645539,"0.0-2.0-37.0","65553732575bb29198a888d7","655659f669eff2d0d384972c",8,"15315","Akita_middle_pos_2_1.jpg",NA,NA,NA,NA,NA,NA,NA,NA,NA,NA,NA,NA,NA,NA,NA,NA,"[]","large",2,"sch",2,30,3,2,2,4,2,1,"48127","30","male","man","","middle-eastern","","No","",""
"31","63ebbd7af1c80715178e5586","svTrial","survey",40,660505,"0.0-2.0-38.0","65553732575bb29198a888d7","655659f669eff2d0d384972c",8,"14959","Ishikawa_large_sch_11_3.jpg",NA,NA,NA,NA,NA,NA,NA,NA,NA,NA,NA,NA,NA,NA,NA,NA,"[]","small",2,"pos",11,31,3,4,3,3,3,1,"48127","30","male","man","","middle-eastern","","No","",""
"32","63ebbd7af1c80715178e5586","svTrial","survey",41,680852,"0.0-2.0-39.0","65553732575bb29198a888d7","655659f669eff2d0d384972c",8,"20340","Kanagawa_large_pos_6_0.jpg",NA,NA,NA,NA,NA,NA,NA,NA,NA,NA,NA,NA,NA,NA,NA,NA,"[]","small",1,"sch",6,32,2,2,3,3,3,1,"48127","30","male","man","","middle-eastern","","No","",""
"33","63ebbd7af1c80715178e5586","svTrial","survey",42,697528,"0.0-2.0-40.0","65553732575bb29198a888d7","655659f669eff2d0d384972c",8,"16669","Hokkaido_large_sch_10_1.jpg",NA,NA,NA,NA,NA,NA,NA,NA,NA,NA,NA,NA,NA,NA,NA,NA,"[]","large",1,"pos",10,33,2,3,3,3,3,1,"48127","30","male","man","","middle-eastern","","No","",""
"34","63ebbd7af1c80715178e5586","svTrial","survey",43,712575,"0.0-2.0-41.0","65553732575bb29198a888d7","655659f669eff2d0d384972c",8,"15040","Ishikawa_large_pos_12_1.jpg",NA,NA,NA,NA,NA,NA,NA,NA,NA,NA,NA,NA,NA,NA,NA,NA,"[]","small",2,"sch",12,34,2,4,4,4,3,1,"48127","30","male","man","","middle-eastern","","No","",""
"35","63ebbd7af1c80715178e5586","svTrial","survey",44,724265,"0.0-2.0-42.0","65553732575bb29198a888d7","655659f669eff2d0d384972c",8,"11683","Okinawa_middle_sch_5_3.jpg",NA,NA,NA,NA,NA,NA,NA,NA,NA,NA,NA,NA,NA,NA,NA,NA,"[]","small",1,"sch",5,35,2,4,3,3,3,1,"48127","30","male","man","","middle-eastern","","No","",""
"36","63ebbd7af1c80715178e5586","svTrial","survey",45,737348,"0.0-2.0-43.0","65553732575bb29198a888d7","655659f669eff2d0d384972c",8,"13077","Akita_large_pos_4_2.jpg",NA,NA,NA,NA,NA,NA,NA,NA,NA,NA,NA,NA,NA,NA,NA,NA,"[]","middle",2,"pos",4,36,2,4,2,3,3,1,"48127","30","male","man","","middle-eastern","","No","",""
"37","63ebbd7af1c80715178e5586","svTrial","survey",46,755485,"0.0-2.0-44.0","65553732575bb29198a888d7","655659f669eff2d0d384972c",8,"18131","Okinawa_middle_pos_7_2.jpg",NA,NA,NA,NA,NA,NA,NA,NA,NA,NA,NA,NA,NA,NA,NA,NA,"[]","middle",1,"sch",7,37,2,2,2,4,3,1,"48127","30","male","man","","middle-eastern","","No","",""
"38","63ebbd7af1c80715178e5586","svTrial","survey",47,771484,"0.0-2.0-45.0","65553732575bb29198a888d7","655659f669eff2d0d384972c",8,"15992","Ishikawa_large_pos_9_3.jpg",NA,NA,NA,NA,NA,NA,NA,NA,NA,NA,NA,NA,NA,NA,NA,NA,"[]","large",2,"pos",9,38,4,2,2,3,3,1,"48127","30","male","man","","middle-eastern","","No","",""
"39","63ebbd7af1c80715178e5586","svTrial","survey",48,781978,"0.0-2.0-46.0","65553732575bb29198a888d7","655659f669eff2d0d384972c",8,"10487","Niigata_large_pos_2_3.jpg",NA,NA,NA,NA,NA,NA,NA,NA,NA,NA,NA,NA,NA,NA,NA,NA,"[]","middle",2,"pos",2,39,5,NA,NA,NA,NA,1,"48127","30","male","man","","middle-eastern","","No","",""
"40","63ebbd7af1c80715178e5586","svTrial","survey",49,802585,"0.0-2.0-47.0","65553732575bb29198a888d7","655659f669eff2d0d384972c",8,"20599","Hokkaido_large_pos_2_3.jpg",NA,NA,NA,NA,NA,NA,NA,NA,NA,NA,NA,NA,NA,NA,NA,NA,"[]","small",1,"sch",2,40,4,4,3,4,3,1,"48127","30","male","man","","middle-eastern","","No","",""
"41","63ebbd7af1c80715178e5586","svTrial","survey",50,817920,"0.0-2.0-48.0","65553732575bb29198a888d7","655659f669eff2d0d384972c",8,"15328","Okinawa_small_sch_2_1.jpg",NA,NA,NA,NA,NA,NA,NA,NA,NA,NA,NA,NA,NA,NA,NA,NA,"[]","middle",1,"sch",2,41,4,3,2,4,3,1,"48127","30","male","man","","middle-eastern","","No","",""
"42","63ebbd7af1c80715178e5586","svTrial","survey",51,829487,"0.0-2.0-49.0","65553732575bb29198a888d7","655659f669eff2d0d384972c",8,"11559","Toyama_middle_sch_4_3.jpg",NA,NA,NA,NA,NA,NA,NA,NA,NA,NA,NA,NA,NA,NA,NA,NA,"[]","middle",2,"sch",4,42,2,3,2,3,3,1,"48127","30","male","man","","middle-eastern","","No","",""
"43","63ebbd7af1c80715178e5586","svTrial","survey",52,834374,"0.0-2.0-50.0","65553732575bb29198a888d7","655659f669eff2d0d384972c",8,"4881","Okinawa_middle_pos_8_2.jpg",NA,NA,NA,NA,NA,NA,NA,NA,NA,NA,NA,NA,NA,NA,NA,NA,"[]","small",1,"pos",8,43,2,3,3,3,3,1,"48127","30","male","man","","middle-eastern","","No","",""
"44","63ebbd7af1c80715178e5586","svTrial","survey",53,847523,"0.0-2.0-51.0","65553732575bb29198a888d7","655659f669eff2d0d384972c",8,"13142","Ishikawa_middle_pos_8_1.jpg",NA,NA,NA,NA,NA,NA,NA,NA,NA,NA,NA,NA,NA,NA,NA,NA,"[]","small",2,"sch",8,44,1,3,2,2,3,1,"48127","30","male","man","","middle-eastern","","No","",""
"45","63ebbd7af1c80715178e5586","svTrial","survey",54,861391,"0.0-2.0-52.0","65553732575bb29198a888d7","655659f669eff2d0d384972c",8,"13861","Akita_small_sch_2_0.jpg",NA,NA,NA,NA,NA,NA,NA,NA,NA,NA,NA,NA,NA,NA,NA,NA,"[]","small",2,"pos",2,45,3,3,4,4,3,1,"48127","30","male","man","","middle-eastern","","No","",""
"46","63ebbd7af1c80715178e5586","svTrial","survey",55,873729,"0.0-2.0-53.0","65553732575bb29198a888d7","655659f669eff2d0d384972c",8,"12332","Toyama_large_sch_6_1.jpg",NA,NA,NA,NA,NA,NA,NA,NA,NA,NA,NA,NA,NA,NA,NA,NA,"[]","middle",2,"sch",6,46,2,2,3,2,2,1,"48127","30","male","man","","middle-eastern","","No","",""
"47","63ebbd7af1c80715178e5586","svTrial","survey",56,884809,"0.0-2.0-54.0","65553732575bb29198a888d7","655659f669eff2d0d384972c",8,"11074","Ishikawa_middle_pos_4_3.jpg",NA,NA,NA,NA,NA,NA,NA,NA,NA,NA,NA,NA,NA,NA,NA,NA,"[]","large",2,"sch",4,47,1,3,4,2,2,1,"48127","30","male","man","","middle-eastern","","No","",""
"48","63ebbd7af1c80715178e5586","svTrial","survey",57,895103,"0.0-2.0-55.0","65553732575bb29198a888d7","655659f669eff2d0d384972c",8,"10287","Toyama_middle_pos_3_0.jpg",NA,NA,NA,NA,NA,NA,NA,NA,NA,NA,NA,NA,NA,NA,NA,NA,"[]","large",2,"pos",3,48,2,3,3,2,2,1,"48127","30","male","man","","middle-eastern","","No","",""
