"","subject_id","task","trial_type","trial_index","time_elapsed","internal_node_id","study_id","session_id","group","rt","stimulus","width","height","webaudio","browser","browser_version","mobile","os","fullscreen","vsync_rate","webcam","microphone","success","timeout","failed_images","failed_audio","failed_video","accuracy","size","culture","loct","number","document.id","ambiguous","objects","invisible","chaos","complex","passedChecks","zipcode","age","sex","gender","gender-self-describe","ethnicity","ethnicity-self-describe","outsideUS","outsideUS_years","surveyComments"
"1","63ecea8502b357005ab3311a","svTrial","survey",8,170388,"0.0-2.0-6.0","65553732575bb29198a888d7","6556537abf5497611df8b9cc",1,"42637","Niigata_large_sch_1_0.jpg",NA,NA,NA,NA,NA,NA,NA,NA,NA,NA,NA,NA,NA,NA,NA,NA,"[]","middle",2,"pos",1,1,2,3,3,3,NA,1,"23120","47","female","woman","","caucasian","","No","",""
"2","63ecea8502b357005ab3311a","svTrial","survey",9,214323,"0.0-2.0-7.0","65553732575bb29198a888d7","6556537abf5497611df8b9cc",1,"43924","Toyama_middle_pos_8_3.jpg",NA,NA,NA,NA,NA,NA,NA,NA,NA,NA,NA,NA,NA,NA,NA,NA,"[]","middle",2,"pos",8,2,2,2,2,1,2,1,"23120","47","female","woman","","caucasian","","No","",""
"3","63ecea8502b357005ab3311a","svTrial","survey",10,238111,"0.0-2.0-8.0","65553732575bb29198a888d7","6556537abf5497611df8b9cc",1,"23776","Kanagawa_middle_pos_7_3.jpg",NA,NA,NA,NA,NA,NA,NA,NA,NA,NA,NA,NA,NA,NA,NA,NA,"[]","middle",1,"sch",7,3,2,2,3,2,2,1,"23120","47","female","woman","","caucasian","","No","",""
"4","63ecea8502b357005ab3311a","svTrial","survey",12,272302,"0.0-2.0-10.0","65553732575bb29198a888d7","6556537abf5497611df8b9cc",1,"27021","Okinawa_large_pos_10_1.jpg",NA,NA,NA,NA,NA,NA,NA,NA,NA,NA,NA,NA,NA,NA,NA,NA,"[]","middle",1,"sch",10,4,2,3,3,3,3,1,"23120","47","female","woman","","caucasian","","No","",""
"5","63ecea8502b357005ab3311a","svTrial","survey",13,292382,"0.0-2.0-11.0","65553732575bb29198a888d7","6556537abf5497611df8b9cc",1,"20070","Niigata_large_sch_2_1.jpg",NA,NA,NA,NA,NA,NA,NA,NA,NA,NA,NA,NA,NA,NA,NA,NA,"[]","middle",2,"sch",2,5,2,1,1,1,1,1,"23120","47","female","woman","","caucasian","","No","",""
"6","63ecea8502b357005ab3311a","svTrial","survey",14,312502,"0.0-2.0-12.0","65553732575bb29198a888d7","6556537abf5497611df8b9cc",1,"20112","Kanagawa_small_sch_2_0.jpg",NA,NA,NA,NA,NA,NA,NA,NA,NA,NA,NA,NA,NA,NA,NA,NA,"[]","large",1,"sch",2,6,3,1,3,2,2,1,"23120","47","female","woman","","caucasian","","No","",""
"7","63ecea8502b357005ab3311a","svTrial","survey",15,346558,"0.0-2.0-13.0","65553732575bb29198a888d7","6556537abf5497611df8b9cc",1,"34048","Hokkaido_middle_pos_2_2.jpg",NA,NA,NA,NA,NA,NA,NA,NA,NA,NA,NA,NA,NA,NA,NA,NA,"[]","small",1,"pos",2,7,2,1,1,2,1,1,"23120","47","female","woman","","caucasian","","No","",""
"8","63ecea8502b357005ab3311a","svTrial","survey",16,367366,"0.0-2.0-14.0","65553732575bb29198a888d7","6556537abf5497611df8b9cc",1,"20799","Hokkaido_large_pos_3_0.jpg",NA,NA,NA,NA,NA,NA,NA,NA,NA,NA,NA,NA,NA,NA,NA,NA,"[]","middle",1,"pos",3,8,3,2,3,2,2,1,"23120","47","female","woman","","caucasian","","No","",""
"9","63ecea8502b357005ab3311a","svTrial","survey",17,389157,"0.0-2.0-15.0","65553732575bb29198a888d7","6556537abf5497611df8b9cc",1,"21783","Kanagawa_middle_sch_6_3.jpg",NA,NA,NA,NA,NA,NA,NA,NA,NA,NA,NA,NA,NA,NA,NA,NA,"[]","small",1,"sch",6,9,3,3,3,3,2,1,"23120","47","female","woman","","caucasian","","No","",""
"10","63ecea8502b357005ab3311a","svTrial","survey",18,405894,"0.0-2.0-16.0","65553732575bb29198a888d7","6556537abf5497611df8b9cc",1,"16728","Okinawa_large_pos_12_2.jpg",NA,NA,NA,NA,NA,NA,NA,NA,NA,NA,NA,NA,NA,NA,NA,NA,"[]","large",1,"sch",12,10,3,3,3,3,2,1,"23120","47","female","woman","","caucasian","","No","",""
"11","63ecea8502b357005ab3311a","svTrial","survey",19,430462,"0.0-2.0-17.0","65553732575bb29198a888d7","6556537abf5497611df8b9cc",1,"24560","Kanagawa_large_pos_10_2.jpg",NA,NA,NA,NA,NA,NA,NA,NA,NA,NA,NA,NA,NA,NA,NA,NA,"[]","small",1,"pos",10,11,4,4,4,3,3,1,"23120","47","female","woman","","caucasian","","No","",""
"12","63ecea8502b357005ab3311a","svTrial","survey",20,448086,"0.0-2.0-18.0","65553732575bb29198a888d7","6556537abf5497611df8b9cc",1,"17616","Niigata_small_sch_1_0.jpg",NA,NA,NA,NA,NA,NA,NA,NA,NA,NA,NA,NA,NA,NA,NA,NA,"[]","middle",2,"sch",1,12,4,2,3,2,2,1,"23120","47","female","woman","","caucasian","","No","",""
"13","63ecea8502b357005ab3311a","svTrial","survey",21,468693,"0.0-2.0-19.0","65553732575bb29198a888d7","6556537abf5497611df8b9cc",1,"20599","Niigata_middle_sch_2_0.jpg",NA,NA,NA,NA,NA,NA,NA,NA,NA,NA,NA,NA,NA,NA,NA,NA,"[]","large",2,"pos",2,13,5,4,3,3,2,1,"23120","47","female","woman","","caucasian","","No","",""
"14","63ecea8502b357005ab3311a","svTrial","survey",22,489974,"0.0-2.0-20.0","65553732575bb29198a888d7","6556537abf5497611df8b9cc",1,"21272","Tokyo_middle_sch_5_2.jpg",NA,NA,NA,NA,NA,NA,NA,NA,NA,NA,NA,NA,NA,NA,NA,NA,"[]","small",1,"sch",5,14,4,1,2,3,1,1,"23120","47","female","woman","","caucasian","","No","",""
"15","63ecea8502b357005ab3311a","svTrial","survey",23,518557,"0.0-2.0-21.0","65553732575bb29198a888d7","6556537abf5497611df8b9cc",1,"28577","Hokkaido_large_sch_12_3.jpg",NA,NA,NA,NA,NA,NA,NA,NA,NA,NA,NA,NA,NA,NA,NA,NA,"[]","small",1,"sch",12,15,3,4,3,2,2,1,"23120","47","female","woman","","caucasian","","No","",""
"16","63ecea8502b357005ab3311a","svTrial","survey",24,537102,"0.0-2.0-22.0","65553732575bb29198a888d7","6556537abf5497611df8b9cc",1,"18536","Niigata_middle_sch_7_2.jpg",NA,NA,NA,NA,NA,NA,NA,NA,NA,NA,NA,NA,NA,NA,NA,NA,"[]","middle",2,"pos",7,16,2,1,1,2,1,1,"23120","47","female","woman","","caucasian","","No","",""
"17","63ecea8502b357005ab3311a","svTrial","survey",25,553261,"0.0-2.0-23.0","65553732575bb29198a888d7","6556537abf5497611df8b9cc",1,"16152","Ishikawa_large_pos_11_0.jpg",NA,NA,NA,NA,NA,NA,NA,NA,NA,NA,NA,NA,NA,NA,NA,NA,"[]","middle",2,"sch",11,17,2,3,2,3,2,1,"23120","47","female","woman","","caucasian","","No","",""
"18","63ecea8502b357005ab3311a","svTrial","survey",26,581653,"0.0-2.0-24.0","65553732575bb29198a888d7","6556537abf5497611df8b9cc",1,"28384","Toyama_small_pos_3_2.jpg",NA,NA,NA,NA,NA,NA,NA,NA,NA,NA,NA,NA,NA,NA,NA,NA,"[]","large",2,"sch",3,18,1,2,1,1,1,1,"23120","47","female","woman","","caucasian","","No","",""
"19","63ecea8502b357005ab3311a","svTrial","survey",27,605574,"0.0-2.0-25.0","65553732575bb29198a888d7","6556537abf5497611df8b9cc",1,"23914","Niigata_middle_sch_8_1.jpg",NA,NA,NA,NA,NA,NA,NA,NA,NA,NA,NA,NA,NA,NA,NA,NA,"[]","middle",2,"pos",8,19,4,3,3,4,3,1,"23120","47","female","woman","","caucasian","","No","",""
"20","63ecea8502b357005ab3311a","svTrial","survey",28,632758,"0.0-2.0-26.0","65553732575bb29198a888d7","6556537abf5497611df8b9cc",1,"27175","Toyama_large_pos_10_1.jpg",NA,NA,NA,NA,NA,NA,NA,NA,NA,NA,NA,NA,NA,NA,NA,NA,"[]","small",2,"sch",10,20,4,1,1,2,2,1,"23120","47","female","woman","","caucasian","","No","",""
"21","63ecea8502b357005ab3311a","svTrial","survey",29,650518,"0.0-2.0-27.0","65553732575bb29198a888d7","6556537abf5497611df8b9cc",1,"17752","Tokyo_large_pos_12_2.jpg",NA,NA,NA,NA,NA,NA,NA,NA,NA,NA,NA,NA,NA,NA,NA,NA,"[]","middle",1,"pos",12,21,2,3,2,2,3,1,"23120","47","female","woman","","caucasian","","No","",""
"22","63ecea8502b357005ab3311a","svTrial","survey",30,663958,"0.0-2.0-28.0","65553732575bb29198a888d7","6556537abf5497611df8b9cc",1,"13434","Hokkaido_large_sch_1_0.jpg",NA,NA,NA,NA,NA,NA,NA,NA,NA,NA,NA,NA,NA,NA,NA,NA,"[]","large",1,"sch",1,22,1,1,1,1,1,1,"23120","47","female","woman","","caucasian","","No","",""
"23","63ecea8502b357005ab3311a","svTrial","survey",31,682222,"0.0-2.0-29.0","65553732575bb29198a888d7","6556537abf5497611df8b9cc",1,"18256","Ishikawa_middle_pos_2_1.jpg",NA,NA,NA,NA,NA,NA,NA,NA,NA,NA,NA,NA,NA,NA,NA,NA,"[]","middle",2,"sch",2,23,2,2,1,2,2,1,"23120","47","female","woman","","caucasian","","No","",""
"24","63ecea8502b357005ab3311a","svTrial","survey",32,709117,"0.0-2.0-30.0","65553732575bb29198a888d7","6556537abf5497611df8b9cc",1,"26888","Niigata_middle_pos_3_0.jpg",NA,NA,NA,NA,NA,NA,NA,NA,NA,NA,NA,NA,NA,NA,NA,NA,"[]","large",2,"pos",3,24,3,3,2,2,3,1,"23120","47","female","woman","","caucasian","","No","",""
"25","63ecea8502b357005ab3311a","svTrial","survey",34,735405,"0.0-2.0-32.0","65553732575bb29198a888d7","6556537abf5497611df8b9cc",1,"21398","Tokyo_large_sch_9_0.jpg",NA,NA,NA,NA,NA,NA,NA,NA,NA,NA,NA,NA,NA,NA,NA,NA,"[]","middle",1,"sch",9,25,2,1,1,2,2,1,"23120","47","female","woman","","caucasian","","No","",""
"26","63ecea8502b357005ab3311a","svTrial","survey",35,752366,"0.0-2.0-33.0","65553732575bb29198a888d7","6556537abf5497611df8b9cc",1,"16953","Toyama_large_pos_7_0.jpg",NA,NA,NA,NA,NA,NA,NA,NA,NA,NA,NA,NA,NA,NA,NA,NA,"[]","large",2,"sch",7,26,3,3,2,2,2,1,"23120","47","female","woman","","caucasian","","No","",""
"27","63ecea8502b357005ab3311a","svTrial","survey",36,767845,"0.0-2.0-34.0","65553732575bb29198a888d7","6556537abf5497611df8b9cc",1,"15472","Akita_small_sch_4_2.jpg",NA,NA,NA,NA,NA,NA,NA,NA,NA,NA,NA,NA,NA,NA,NA,NA,"[]","large",2,"sch",4,27,2,1,1,1,1,1,"23120","47","female","woman","","caucasian","","No","",""
"28","63ecea8502b357005ab3311a","svTrial","survey",37,790894,"0.0-2.0-35.0","65553732575bb29198a888d7","6556537abf5497611df8b9cc",1,"23040","Tokyo_large_pos_4_2.jpg",NA,NA,NA,NA,NA,NA,NA,NA,NA,NA,NA,NA,NA,NA,NA,NA,"[]","large",1,"pos",4,28,2,2,1,2,2,1,"23120","47","female","woman","","caucasian","","No","",""
"29","63ecea8502b357005ab3311a","svTrial","survey",38,809126,"0.0-2.0-36.0","65553732575bb29198a888d7","6556537abf5497611df8b9cc",1,"18225","Hokkaido_large_pos_11_1.jpg",NA,NA,NA,NA,NA,NA,NA,NA,NA,NA,NA,NA,NA,NA,NA,NA,"[]","small",1,"pos",11,29,2,1,1,1,1,1,"23120","47","female","woman","","caucasian","","No","",""
"30","63ecea8502b357005ab3311a","svTrial","survey",39,829541,"0.0-2.0-37.0","65553732575bb29198a888d7","6556537abf5497611df8b9cc",1,"20409","Kanagawa_large_pos_1_1.jpg",NA,NA,NA,NA,NA,NA,NA,NA,NA,NA,NA,NA,NA,NA,NA,NA,"[]","large",1,"sch",1,30,1,1,1,2,2,1,"23120","47","female","woman","","caucasian","","No","",""
"31","63ecea8502b357005ab3311a","svTrial","survey",40,862005,"0.0-2.0-38.0","65553732575bb29198a888d7","6556537abf5497611df8b9cc",1,"32457","Niigata_large_sch_11_2.jpg",NA,NA,NA,NA,NA,NA,NA,NA,NA,NA,NA,NA,NA,NA,NA,NA,"[]","middle",2,"pos",11,31,5,1,4,3,1,1,"23120","47","female","woman","","caucasian","","No","",""
"32","63ecea8502b357005ab3311a","svTrial","survey",41,882573,"0.0-2.0-39.0","65553732575bb29198a888d7","6556537abf5497611df8b9cc",1,"20560","Akita_large_sch_2_2.jpg",NA,NA,NA,NA,NA,NA,NA,NA,NA,NA,NA,NA,NA,NA,NA,NA,"[]","middle",2,"sch",2,32,4,2,2,2,1,1,"23120","47","female","woman","","caucasian","","No","",""
"33","63ecea8502b357005ab3311a","svTrial","survey",42,905724,"0.0-2.0-40.0","65553732575bb29198a888d7","6556537abf5497611df8b9cc",1,"23144","Niigata_large_sch_9_2.jpg",NA,NA,NA,NA,NA,NA,NA,NA,NA,NA,NA,NA,NA,NA,NA,NA,"[]","middle",2,"sch",9,33,4,3,2,3,1,1,"23120","47","female","woman","","caucasian","","No","",""
"34","63ecea8502b357005ab3311a","svTrial","survey",43,919877,"0.0-2.0-41.0","65553732575bb29198a888d7","6556537abf5497611df8b9cc",1,"14144","Niigata_large_sch_10_1.jpg",NA,NA,NA,NA,NA,NA,NA,NA,NA,NA,NA,NA,NA,NA,NA,NA,"[]","large",2,"sch",10,34,2,1,1,1,1,1,"23120","47","female","woman","","caucasian","","No","",""
"35","63ecea8502b357005ab3311a","svTrial","survey",44,929989,"0.0-2.0-42.0","65553732575bb29198a888d7","6556537abf5497611df8b9cc",1,"10105","Ishikawa_middle_pos_3_1.jpg",NA,NA,NA,NA,NA,NA,NA,NA,NA,NA,NA,NA,NA,NA,NA,NA,"[]","middle",2,"sch",3,35,1,1,1,1,1,1,"23120","47","female","woman","","caucasian","","No","",""
"36","63ecea8502b357005ab3311a","svTrial","survey",45,946814,"0.0-2.0-43.0","65553732575bb29198a888d7","6556537abf5497611df8b9cc",1,"16816","Hokkaido_middle_pos_6_1.jpg",NA,NA,NA,NA,NA,NA,NA,NA,NA,NA,NA,NA,NA,NA,NA,NA,"[]","large",1,"sch",6,36,3,3,2,2,2,1,"23120","47","female","woman","","caucasian","","No","",""
"37","63ecea8502b357005ab3311a","svTrial","survey",46,981485,"0.0-2.0-44.0","65553732575bb29198a888d7","6556537abf5497611df8b9cc",1,"34664","Okinawa_large_sch_6_1.jpg",NA,NA,NA,NA,NA,NA,NA,NA,NA,NA,NA,NA,NA,NA,NA,NA,"[]","large",1,"sch",6,37,NA,1,3,3,1,1,"23120","47","female","woman","","caucasian","","No","",""
"38","63ecea8502b357005ab3311a","svTrial","survey",47,999509,"0.0-2.0-45.0","65553732575bb29198a888d7","6556537abf5497611df8b9cc",1,"18016","Tokyo_large_sch_11_0.jpg",NA,NA,NA,NA,NA,NA,NA,NA,NA,NA,NA,NA,NA,NA,NA,NA,"[]","small",1,"sch",11,38,3,1,2,2,1,1,"23120","47","female","woman","","caucasian","","No","",""
"39","63ecea8502b357005ab3311a","svTrial","survey",48,1017277,"0.0-2.0-46.0","65553732575bb29198a888d7","6556537abf5497611df8b9cc",1,"17760","Toyama_large_sch_11_3.jpg",NA,NA,NA,NA,NA,NA,NA,NA,NA,NA,NA,NA,NA,NA,NA,NA,"[]","middle",2,"sch",11,39,2,2,2,2,1,1,"23120","47","female","woman","","caucasian","","No","",""
"40","63ecea8502b357005ab3311a","svTrial","survey",49,1037949,"0.0-2.0-47.0","65553732575bb29198a888d7","6556537abf5497611df8b9cc",1,"20664","Tokyo_large_pos_1_1.jpg",NA,NA,NA,NA,NA,NA,NA,NA,NA,NA,NA,NA,NA,NA,NA,NA,"[]","large",1,"pos",1,40,2,1,1,1,2,1,"23120","47","female","woman","","caucasian","","No","",""
"41","63ecea8502b357005ab3311a","svTrial","survey",50,1054941,"0.0-2.0-48.0","65553732575bb29198a888d7","6556537abf5497611df8b9cc",1,"16984","Toyama_middle_sch_5_2.jpg",NA,NA,NA,NA,NA,NA,NA,NA,NA,NA,NA,NA,NA,NA,NA,NA,"[]","middle",2,"sch",5,41,3,3,3,2,3,1,"23120","47","female","woman","","caucasian","","No","",""
"42","63ecea8502b357005ab3311a","svTrial","survey",51,1079101,"0.0-2.0-49.0","65553732575bb29198a888d7","6556537abf5497611df8b9cc",1,"24153","Okinawa_large_sch_11_0.jpg",NA,NA,NA,NA,NA,NA,NA,NA,NA,NA,NA,NA,NA,NA,NA,NA,"[]","middle",1,"pos",11,42,3,2,3,3,3,1,"23120","47","female","woman","","caucasian","","No","",""
"43","63ecea8502b357005ab3311a","svTrial","survey",52,1100182,"0.0-2.0-50.0","65553732575bb29198a888d7","6556537abf5497611df8b9cc",1,"21072","Tokyo_large_sch_10_0.jpg",NA,NA,NA,NA,NA,NA,NA,NA,NA,NA,NA,NA,NA,NA,NA,NA,"[]","middle",1,"pos",10,43,4,3,3,4,3,1,"23120","47","female","woman","","caucasian","","No","",""
"44","63ecea8502b357005ab3311a","svTrial","survey",53,1116269,"0.0-2.0-51.0","65553732575bb29198a888d7","6556537abf5497611df8b9cc",1,"16080","Akita_large_pos_2_1.jpg",NA,NA,NA,NA,NA,NA,NA,NA,NA,NA,NA,NA,NA,NA,NA,NA,"[]","middle",2,"pos",2,44,2,1,1,1,1,1,"23120","47","female","woman","","caucasian","","No","",""
"45","63ecea8502b357005ab3311a","svTrial","survey",54,1134181,"0.0-2.0-52.0","65553732575bb29198a888d7","6556537abf5497611df8b9cc",1,"17906","Kanagawa_large_pos_12_1.jpg",NA,NA,NA,NA,NA,NA,NA,NA,NA,NA,NA,NA,NA,NA,NA,NA,"[]","middle",1,"sch",12,45,3,3,3,2,3,1,"23120","47","female","woman","","caucasian","","No","",""
"46","63ecea8502b357005ab3311a","svTrial","survey",55,1147252,"0.0-2.0-53.0","65553732575bb29198a888d7","6556537abf5497611df8b9cc",1,"13064","Akita_middle_sch_4_2.jpg",NA,NA,NA,NA,NA,NA,NA,NA,NA,NA,NA,NA,NA,NA,NA,NA,"[]","small",2,"sch",4,46,2,1,2,2,2,1,"23120","47","female","woman","","caucasian","","No","",""
"47","63ecea8502b357005ab3311a","svTrial","survey",56,1177413,"0.0-2.0-54.0","65553732575bb29198a888d7","6556537abf5497611df8b9cc",1,"30152","Niigata_small_sch_4_2.jpg",NA,NA,NA,NA,NA,NA,NA,NA,NA,NA,NA,NA,NA,NA,NA,NA,"[]","large",2,"sch",4,47,5,1,4,4,1,1,"23120","47","female","woman","","caucasian","","No","",""
"48","63ecea8502b357005ab3311a","svTrial","survey",57,1192773,"0.0-2.0-55.0","65553732575bb29198a888d7","6556537abf5497611df8b9cc",1,"15353","Tokyo_small_pos_3_0.jpg",NA,NA,NA,NA,NA,NA,NA,NA,NA,NA,NA,NA,NA,NA,NA,NA,"[]","middle",1,"sch",3,48,2,2,3,3,3,1,"23120","47","female","woman","","caucasian","","No","",""
