"","subject_id","task","trial_type","trial_index","time_elapsed","internal_node_id","study_id","session_id","group","rt","stimulus","width","height","webaudio","browser","browser_version","mobile","os","fullscreen","vsync_rate","webcam","microphone","success","timeout","failed_images","failed_audio","failed_video","accuracy","size","culture","loct","number","document.id","ambiguous","objects","invisible","chaos","complex","passedChecks","zipcode","age","sex","gender","gender-self-describe","ethnicity","ethnicity-self-describe","outsideUS","outsideUS_years","surveyComments"
"1","641be1c8572bb1a8dc26c801","svTrial","survey",8,161730,"0.0-2.0-6.0","65553732575bb29198a888d7","65565c0a05360b06fabbdb09",2,"43628","Okinawa_middle_sch_2_3.jpg",NA,NA,NA,NA,NA,NA,NA,NA,NA,NA,NA,NA,NA,NA,NA,NA,"[]","small",1,"sch",2,1,5,1,1,3,1,1,"32757","37","male","man","","caucasian","","Yes","3",""
"2","641be1c8572bb1a8dc26c801","svTrial","survey",9,184518,"0.0-2.0-7.0","65553732575bb29198a888d7","65565c0a05360b06fabbdb09",2,"22761","Okinawa_large_pos_4_1.jpg",NA,NA,NA,NA,NA,NA,NA,NA,NA,NA,NA,NA,NA,NA,NA,NA,"[]","large",1,"sch",4,2,1,3,3,2,3,1,"32757","37","male","man","","caucasian","","Yes","3",""
"3","641be1c8572bb1a8dc26c801","svTrial","survey",10,210771,"0.0-2.0-8.0","65553732575bb29198a888d7","65565c0a05360b06fabbdb09",2,"26229","Toyama_large_sch_1_2.jpg",NA,NA,NA,NA,NA,NA,NA,NA,NA,NA,NA,NA,NA,NA,NA,NA,"[]","middle",2,"sch",1,3,4,1,2,3,2,1,"32757","37","male","man","","caucasian","","Yes","3",""
"4","641be1c8572bb1a8dc26c801","svTrial","survey",11,234516,"0.0-2.0-9.0","65553732575bb29198a888d7","65565c0a05360b06fabbdb09",2,"23719","Toyama_small_pos_4_2.jpg",NA,NA,NA,NA,NA,NA,NA,NA,NA,NA,NA,NA,NA,NA,NA,NA,"[]","small",2,"sch",4,4,2,2,3,3,3,1,"32757","37","male","man","","caucasian","","Yes","3",""
"5","641be1c8572bb1a8dc26c801","svTrial","survey",12,255832,"0.0-2.0-10.0","65553732575bb29198a888d7","65565c0a05360b06fabbdb09",2,"21295","Tokyo_large_pos_5_0.jpg",NA,NA,NA,NA,NA,NA,NA,NA,NA,NA,NA,NA,NA,NA,NA,NA,"[]","middle",1,"pos",5,5,2,2,2,1,1,1,"32757","37","male","man","","caucasian","","Yes","3",""
"6","641be1c8572bb1a8dc26c801","svTrial","survey",13,287583,"0.0-2.0-11.0","65553732575bb29198a888d7","65565c0a05360b06fabbdb09",2,"31727","Niigata_large_pos_8_1.jpg",NA,NA,NA,NA,NA,NA,NA,NA,NA,NA,NA,NA,NA,NA,NA,NA,"[]","middle",2,"pos",8,6,4,3,4,2,2,1,"32757","37","male","man","","caucasian","","Yes","3",""
"7","641be1c8572bb1a8dc26c801","svTrial","survey",14,305202,"0.0-2.0-12.0","65553732575bb29198a888d7","65565c0a05360b06fabbdb09",2,"17593","Kanagawa_large_sch_3_3.jpg",NA,NA,NA,NA,NA,NA,NA,NA,NA,NA,NA,NA,NA,NA,NA,NA,"[]","small",1,"pos",3,7,4,2,3,4,2,1,"32757","37","male","man","","caucasian","","Yes","3",""
"8","641be1c8572bb1a8dc26c801","svTrial","survey",15,321349,"0.0-2.0-13.0","65553732575bb29198a888d7","65565c0a05360b06fabbdb09",2,"16124","Hokkaido_middle_sch_5_0.jpg",NA,NA,NA,NA,NA,NA,NA,NA,NA,NA,NA,NA,NA,NA,NA,NA,"[]","small",1,"pos",5,8,1,2,2,1,1,1,"32757","37","male","man","","caucasian","","Yes","3",""
"9","641be1c8572bb1a8dc26c801","svTrial","survey",16,352916,"0.0-2.0-14.0","65553732575bb29198a888d7","65565c0a05360b06fabbdb09",2,"31510","Okinawa_large_sch_8_1.jpg",NA,NA,NA,NA,NA,NA,NA,NA,NA,NA,NA,NA,NA,NA,NA,NA,"[]","middle",1,"sch",8,9,2,4,3,3,4,1,"32757","37","male","man","","caucasian","","Yes","3",""
"10","641be1c8572bb1a8dc26c801","svTrial","survey",17,380522,"0.0-2.0-15.0","65553732575bb29198a888d7","65565c0a05360b06fabbdb09",2,"27575","Toyama_middle_pos_2_1.jpg",NA,NA,NA,NA,NA,NA,NA,NA,NA,NA,NA,NA,NA,NA,NA,NA,"[]","middle",2,"pos",2,10,3,1,2,2,1,1,"32757","37","male","man","","caucasian","","Yes","3",""
"11","641be1c8572bb1a8dc26c801","svTrial","survey",18,404851,"0.0-2.0-16.0","65553732575bb29198a888d7","65565c0a05360b06fabbdb09",2,"24307","Niigata_large_sch_8_3.jpg",NA,NA,NA,NA,NA,NA,NA,NA,NA,NA,NA,NA,NA,NA,NA,NA,"[]","middle",2,"sch",8,11,3,2,3,4,3,1,"32757","37","male","man","","caucasian","","Yes","3",""
"12","641be1c8572bb1a8dc26c801","svTrial","survey",19,430211,"0.0-2.0-17.0","65553732575bb29198a888d7","65565c0a05360b06fabbdb09",2,"25345","Kanagawa_large_sch_6_1.jpg",NA,NA,NA,NA,NA,NA,NA,NA,NA,NA,NA,NA,NA,NA,NA,NA,"[]","middle",1,"pos",6,12,4,2,2,3,3,1,"32757","37","male","man","","caucasian","","Yes","3",""
"13","641be1c8572bb1a8dc26c801","svTrial","survey",20,449675,"0.0-2.0-18.0","65553732575bb29198a888d7","65565c0a05360b06fabbdb09",2,"19441","Kanagawa_small_pos_2_2.jpg",NA,NA,NA,NA,NA,NA,NA,NA,NA,NA,NA,NA,NA,NA,NA,NA,"[]","small",1,"sch",2,13,1,1,2,2,2,1,"32757","37","male","man","","caucasian","","Yes","3",""
"14","641be1c8572bb1a8dc26c801","svTrial","survey",21,471553,"0.0-2.0-19.0","65553732575bb29198a888d7","65565c0a05360b06fabbdb09",2,"21850","Kanagawa_large_pos_5_0.jpg",NA,NA,NA,NA,NA,NA,NA,NA,NA,NA,NA,NA,NA,NA,NA,NA,"[]","small",1,"sch",5,14,2,4,2,2,3,1,"32757","37","male","man","","caucasian","","Yes","3",""
"15","641be1c8572bb1a8dc26c801","svTrial","survey",22,489749,"0.0-2.0-20.0","65553732575bb29198a888d7","65565c0a05360b06fabbdb09",2,"18180","Akita_middle_sch_2_3.jpg",NA,NA,NA,NA,NA,NA,NA,NA,NA,NA,NA,NA,NA,NA,NA,NA,"[]","middle",2,"sch",2,15,5,1,1,1,1,1,"32757","37","male","man","","caucasian","","Yes","3",""
"16","641be1c8572bb1a8dc26c801","svTrial","survey",23,503719,"0.0-2.0-21.0","65553732575bb29198a888d7","65565c0a05360b06fabbdb09",2,"13955","Hokkaido_middle_sch_3_3.jpg",NA,NA,NA,NA,NA,NA,NA,NA,NA,NA,NA,NA,NA,NA,NA,NA,"[]","middle",1,"sch",3,16,5,1,1,3,1,1,"32757","37","male","man","","caucasian","","Yes","3",""
"17","641be1c8572bb1a8dc26c801","svTrial","survey",24,522390,"0.0-2.0-22.0","65553732575bb29198a888d7","65565c0a05360b06fabbdb09",2,"18650","Toyama_middle_pos_5_1.jpg",NA,NA,NA,NA,NA,NA,NA,NA,NA,NA,NA,NA,NA,NA,NA,NA,"[]","large",2,"sch",5,17,5,1,2,3,2,1,"32757","37","male","man","","caucasian","","Yes","3",""
"18","641be1c8572bb1a8dc26c801","svTrial","survey",25,542520,"0.0-2.0-23.0","65553732575bb29198a888d7","65565c0a05360b06fabbdb09",2,"20115","Niigata_middle_pos_8_2.jpg",NA,NA,NA,NA,NA,NA,NA,NA,NA,NA,NA,NA,NA,NA,NA,NA,"[]","middle",2,"pos",8,18,2,3,2,2,2,1,"32757","37","male","man","","caucasian","","Yes","3",""
"19","641be1c8572bb1a8dc26c801","svTrial","survey",26,567293,"0.0-2.0-24.0","65553732575bb29198a888d7","65565c0a05360b06fabbdb09",2,"24758","Ishikawa_large_sch_1_3.jpg",NA,NA,NA,NA,NA,NA,NA,NA,NA,NA,NA,NA,NA,NA,NA,NA,"[]","middle",2,"sch",1,19,2,2,4,3,3,1,"32757","37","male","man","","caucasian","","Yes","3",""
"20","641be1c8572bb1a8dc26c801","svTrial","survey",27,592393,"0.0-2.0-25.0","65553732575bb29198a888d7","65565c0a05360b06fabbdb09",2,"25077","Hokkaido_small_sch_4_3.jpg",NA,NA,NA,NA,NA,NA,NA,NA,NA,NA,NA,NA,NA,NA,NA,NA,"[]","small",1,"pos",4,20,1,2,1,1,1,1,"32757","37","male","man","","caucasian","","Yes","3",""
"21","641be1c8572bb1a8dc26c801","svTrial","survey",28,615904,"0.0-2.0-26.0","65553732575bb29198a888d7","65565c0a05360b06fabbdb09",2,"23499","Niigata_middle_sch_5_3.jpg",NA,NA,NA,NA,NA,NA,NA,NA,NA,NA,NA,NA,NA,NA,NA,NA,"[]","small",2,"pos",5,21,3,2,2,3,2,1,"32757","37","male","man","","caucasian","","Yes","3",""
"22","641be1c8572bb1a8dc26c801","svTrial","survey",29,630384,"0.0-2.0-27.0","65553732575bb29198a888d7","65565c0a05360b06fabbdb09",2,"14465","Toyama_large_sch_5_1.jpg",NA,NA,NA,NA,NA,NA,NA,NA,NA,NA,NA,NA,NA,NA,NA,NA,"[]","large",2,"sch",5,22,2,2,2,2,2,1,"32757","37","male","man","","caucasian","","Yes","3",""
"23","641be1c8572bb1a8dc26c801","svTrial","survey",30,646868,"0.0-2.0-28.0","65553732575bb29198a888d7","65565c0a05360b06fabbdb09",2,"16462","Hokkaido_large_pos_12_1.jpg",NA,NA,NA,NA,NA,NA,NA,NA,NA,NA,NA,NA,NA,NA,NA,NA,"[]","middle",1,"sch",12,23,2,2,2,2,3,1,"32757","37","male","man","","caucasian","","Yes","3",""
"24","641be1c8572bb1a8dc26c801","svTrial","survey",31,668234,"0.0-2.0-29.0","65553732575bb29198a888d7","65565c0a05360b06fabbdb09",2,"21345","Tokyo_middle_sch_8_3.jpg",NA,NA,NA,NA,NA,NA,NA,NA,NA,NA,NA,NA,NA,NA,NA,NA,"[]","small",1,"sch",8,24,1,2,1,1,1,1,"32757","37","male","man","","caucasian","","Yes","3",""
"25","641be1c8572bb1a8dc26c801","svTrial","survey",33,702556,"0.0-2.0-31.0","65553732575bb29198a888d7","65565c0a05360b06fabbdb09",2,"26650","Toyama_small_sch_4_0.jpg",NA,NA,NA,NA,NA,NA,NA,NA,NA,NA,NA,NA,NA,NA,NA,NA,"[]","middle",2,"sch",4,25,5,2,5,5,3,1,"32757","37","male","man","","caucasian","","Yes","3",""
"26","641be1c8572bb1a8dc26c801","svTrial","survey",34,737886,"0.0-2.0-32.0","65553732575bb29198a888d7","65565c0a05360b06fabbdb09",2,"35308","Toyama_large_sch_12_1.jpg",NA,NA,NA,NA,NA,NA,NA,NA,NA,NA,NA,NA,NA,NA,NA,NA,"[]","small",2,"pos",12,26,1,2,2,2,2,1,"32757","37","male","man","","caucasian","","Yes","3",""
"27","641be1c8572bb1a8dc26c801","svTrial","survey",35,775906,"0.0-2.0-33.0","65553732575bb29198a888d7","65565c0a05360b06fabbdb09",2,"37997","Niigata_large_pos_6_2.jpg",NA,NA,NA,NA,NA,NA,NA,NA,NA,NA,NA,NA,NA,NA,NA,NA,"[]","large",2,"sch",6,27,2,2,2,2,2,1,"32757","37","male","man","","caucasian","","Yes","3",""
"28","641be1c8572bb1a8dc26c801","svTrial","survey",36,808942,"0.0-2.0-34.0","65553732575bb29198a888d7","65565c0a05360b06fabbdb09",2,"33017","Okinawa_large_sch_9_2.jpg",NA,NA,NA,NA,NA,NA,NA,NA,NA,NA,NA,NA,NA,NA,NA,NA,"[]","small",1,"sch",9,28,4,3,4,3,3,1,"32757","37","male","man","","caucasian","","Yes","3",""
"29","641be1c8572bb1a8dc26c801","svTrial","survey",37,821085,"0.0-2.0-35.0","65553732575bb29198a888d7","65565c0a05360b06fabbdb09",2,"12130","Akita_large_pos_6_1.jpg",NA,NA,NA,NA,NA,NA,NA,NA,NA,NA,NA,NA,NA,NA,NA,NA,"[]","large",2,"sch",6,29,1,1,1,1,1,1,"32757","37","male","man","","caucasian","","Yes","3",""
"30","641be1c8572bb1a8dc26c801","svTrial","survey",38,833251,"0.0-2.0-36.0","65553732575bb29198a888d7","65565c0a05360b06fabbdb09",2,"12144","Kanagawa_large_sch_4_0.jpg",NA,NA,NA,NA,NA,NA,NA,NA,NA,NA,NA,NA,NA,NA,NA,NA,"[]","middle",1,"sch",4,30,2,2,3,2,2,1,"32757","37","male","man","","caucasian","","Yes","3",""
"31","641be1c8572bb1a8dc26c801","svTrial","survey",39,847186,"0.0-2.0-37.0","65553732575bb29198a888d7","65565c0a05360b06fabbdb09",2,"13917","Toyama_large_pos_3_2.jpg",NA,NA,NA,NA,NA,NA,NA,NA,NA,NA,NA,NA,NA,NA,NA,NA,"[]","middle",2,"pos",3,31,1,2,2,2,2,1,"32757","37","male","man","","caucasian","","Yes","3",""
"32","641be1c8572bb1a8dc26c801","svTrial","survey",40,864120,"0.0-2.0-38.0","65553732575bb29198a888d7","65565c0a05360b06fabbdb09",2,"16914","Toyama_middle_pos_4_1.jpg",NA,NA,NA,NA,NA,NA,NA,NA,NA,NA,NA,NA,NA,NA,NA,NA,"[]","large",2,"sch",4,32,2,2,2,2,2,1,"32757","37","male","man","","caucasian","","Yes","3",""
"33","641be1c8572bb1a8dc26c801","svTrial","survey",41,881518,"0.0-2.0-39.0","65553732575bb29198a888d7","65565c0a05360b06fabbdb09",2,"17379","Kanagawa_middle_sch_3_2.jpg",NA,NA,NA,NA,NA,NA,NA,NA,NA,NA,NA,NA,NA,NA,NA,NA,"[]","large",1,"sch",3,33,3,2,2,3,3,1,"32757","37","male","man","","caucasian","","Yes","3",""
"34","641be1c8572bb1a8dc26c801","svTrial","survey",42,895745,"0.0-2.0-40.0","65553732575bb29198a888d7","65565c0a05360b06fabbdb09",2,"14212","Akita_large_sch_3_2.jpg",NA,NA,NA,NA,NA,NA,NA,NA,NA,NA,NA,NA,NA,NA,NA,NA,"[]","small",2,"sch",3,34,2,3,4,3,3,1,"32757","37","male","man","","caucasian","","Yes","3",""
"35","641be1c8572bb1a8dc26c801","svTrial","survey",44,920230,"0.0-2.0-42.0","65553732575bb29198a888d7","65565c0a05360b06fabbdb09",2,"17712","Kanagawa_large_sch_7_2.jpg",NA,NA,NA,NA,NA,NA,NA,NA,NA,NA,NA,NA,NA,NA,NA,NA,"[]","middle",1,"pos",7,35,4,4,3,4,4,1,"32757","37","male","man","","caucasian","","Yes","3",""
"36","641be1c8572bb1a8dc26c801","svTrial","survey",45,939727,"0.0-2.0-43.0","65553732575bb29198a888d7","65565c0a05360b06fabbdb09",2,"19475","Niigata_large_sch_4_3.jpg",NA,NA,NA,NA,NA,NA,NA,NA,NA,NA,NA,NA,NA,NA,NA,NA,"[]","small",2,"sch",4,36,2,3,2,2,2,1,"32757","37","male","man","","caucasian","","Yes","3",""
"37","641be1c8572bb1a8dc26c801","svTrial","survey",46,954467,"0.0-2.0-44.0","65553732575bb29198a888d7","65565c0a05360b06fabbdb09",2,"14721","Toyama_middle_pos_7_1.jpg",NA,NA,NA,NA,NA,NA,NA,NA,NA,NA,NA,NA,NA,NA,NA,NA,"[]","large",2,"sch",7,37,2,3,2,2,2,1,"32757","37","male","man","","caucasian","","Yes","3",""
"38","641be1c8572bb1a8dc26c801","svTrial","survey",47,974450,"0.0-2.0-45.0","65553732575bb29198a888d7","65565c0a05360b06fabbdb09",2,"19969","Toyama_small_sch_2_0.jpg",NA,NA,NA,NA,NA,NA,NA,NA,NA,NA,NA,NA,NA,NA,NA,NA,"[]","large",2,"pos",2,38,2,3,2,2,2,1,"32757","37","male","man","","caucasian","","Yes","3",""
"39","641be1c8572bb1a8dc26c801","svTrial","survey",48,990773,"0.0-2.0-46.0","65553732575bb29198a888d7","65565c0a05360b06fabbdb09",2,"16300","Kanagawa_small_pos_3_3.jpg",NA,NA,NA,NA,NA,NA,NA,NA,NA,NA,NA,NA,NA,NA,NA,NA,"[]","large",1,"sch",3,39,2,3,3,2,2,1,"32757","37","male","man","","caucasian","","Yes","3",""
"40","641be1c8572bb1a8dc26c801","svTrial","survey",49,1005079,"0.0-2.0-47.0","65553732575bb29198a888d7","65565c0a05360b06fabbdb09",2,"14286","Okinawa_large_sch_3_0.jpg",NA,NA,NA,NA,NA,NA,NA,NA,NA,NA,NA,NA,NA,NA,NA,NA,"[]","large",1,"pos",3,40,4,3,4,4,4,1,"32757","37","male","man","","caucasian","","Yes","3",""
"41","641be1c8572bb1a8dc26c801","svTrial","survey",50,1026841,"0.0-2.0-48.0","65553732575bb29198a888d7","65565c0a05360b06fabbdb09",2,"21743","Tokyo_large_pos_6_2.jpg",NA,NA,NA,NA,NA,NA,NA,NA,NA,NA,NA,NA,NA,NA,NA,NA,"[]","middle",1,"pos",6,41,5,3,1,3,3,1,"32757","37","male","man","","caucasian","","Yes","3",""
"42","641be1c8572bb1a8dc26c801","svTrial","survey",51,1047441,"0.0-2.0-49.0","65553732575bb29198a888d7","65565c0a05360b06fabbdb09",2,"20586","Akita_large_pos_8_3.jpg",NA,NA,NA,NA,NA,NA,NA,NA,NA,NA,NA,NA,NA,NA,NA,NA,"[]","middle",2,"pos",8,42,2,3,3,2,3,1,"32757","37","male","man","","caucasian","","Yes","3",""
"43","641be1c8572bb1a8dc26c801","svTrial","survey",52,1068315,"0.0-2.0-50.0","65553732575bb29198a888d7","65565c0a05360b06fabbdb09",2,"20852","Okinawa_large_sch_1_3.jpg",NA,NA,NA,NA,NA,NA,NA,NA,NA,NA,NA,NA,NA,NA,NA,NA,"[]","middle",1,"pos",1,43,3,4,2,3,3,1,"32757","37","male","man","","caucasian","","Yes","3",""
"44","641be1c8572bb1a8dc26c801","svTrial","survey",53,1083292,"0.0-2.0-51.0","65553732575bb29198a888d7","65565c0a05360b06fabbdb09",2,"14955","Akita_middle_sch_7_3.jpg",NA,NA,NA,NA,NA,NA,NA,NA,NA,NA,NA,NA,NA,NA,NA,NA,"[]","large",2,"sch",7,44,2,3,3,2,3,1,"32757","37","male","man","","caucasian","","Yes","3",""
"45","641be1c8572bb1a8dc26c801","svTrial","survey",54,1104733,"0.0-2.0-52.0","65553732575bb29198a888d7","65565c0a05360b06fabbdb09",2,"21425","Hokkaido_large_sch_6_2.jpg",NA,NA,NA,NA,NA,NA,NA,NA,NA,NA,NA,NA,NA,NA,NA,NA,"[]","small",1,"pos",6,45,2,3,2,2,2,1,"32757","37","male","man","","caucasian","","Yes","3",""
"46","641be1c8572bb1a8dc26c801","svTrial","survey",55,1118924,"0.0-2.0-53.0","65553732575bb29198a888d7","65565c0a05360b06fabbdb09",2,"14170","Tokyo_small_sch_3_1.jpg",NA,NA,NA,NA,NA,NA,NA,NA,NA,NA,NA,NA,NA,NA,NA,NA,"[]","small",1,"sch",3,46,2,3,3,2,2,1,"32757","37","male","man","","caucasian","","Yes","3",""
"47","641be1c8572bb1a8dc26c801","svTrial","survey",56,1136068,"0.0-2.0-54.0","65553732575bb29198a888d7","65565c0a05360b06fabbdb09",2,"17124","Ishikawa_large_sch_5_3.jpg",NA,NA,NA,NA,NA,NA,NA,NA,NA,NA,NA,NA,NA,NA,NA,NA,"[]","large",2,"sch",5,47,3,3,3,2,2,1,"32757","37","male","man","","caucasian","","Yes","3",""
"48","641be1c8572bb1a8dc26c801","svTrial","survey",57,1152383,"0.0-2.0-55.0","65553732575bb29198a888d7","65565c0a05360b06fabbdb09",2,"16293","Okinawa_small_pos_2_0.jpg",NA,NA,NA,NA,NA,NA,NA,NA,NA,NA,NA,NA,NA,NA,NA,NA,"[]","large",1,"pos",2,48,3,3,3,2,2,1,"32757","37","male","man","","caucasian","","Yes","3",""
