"","subject_id","task","trial_type","trial_index","time_elapsed","internal_node_id","study_id","session_id","group","rt","stimulus","width","height","webaudio","browser","browser_version","mobile","os","fullscreen","vsync_rate","webcam","microphone","success","timeout","failed_images","failed_audio","failed_video","accuracy","size","culture","loct","number","document.id","ambiguous","objects","invisible","chaos","complex","passedChecks","zipcode","age","sex","gender","gender-self-describe","ethnicity","ethnicity-self-describe","outsideUS","outsideUS_years","surveyComments"
"1","644456244b8bca2f94fae056","svTrial","survey",8,240285,"0.0-2.0-6.0","65553732575bb29198a888d7","65565bd369e65158ed81bd04",7,"57784","Tokyo_large_pos_10_0.jpg",NA,NA,NA,NA,NA,NA,NA,NA,NA,NA,NA,NA,NA,NA,NA,NA,"[]","large",1,"sch",10,1,2,2,2,2,2,1,"13601","56","male","man","","caucasian","","No","",""
"2","644456244b8bca2f94fae056","svTrial","survey",9,270220,"0.0-2.0-7.0","65553732575bb29198a888d7","65565bd369e65158ed81bd04",7,"29913","Ishikawa_large_sch_7_1.jpg",NA,NA,NA,NA,NA,NA,NA,NA,NA,NA,NA,NA,NA,NA,NA,NA,"[]","large",2,"pos",7,2,3,2,3,2,2,1,"13601","56","male","man","","caucasian","","No","",""
"3","644456244b8bca2f94fae056","svTrial","survey",10,301883,"0.0-2.0-8.0","65553732575bb29198a888d7","65565bd369e65158ed81bd04",7,"31641","Tokyo_middle_sch_4_2.jpg",NA,NA,NA,NA,NA,NA,NA,NA,NA,NA,NA,NA,NA,NA,NA,NA,"[]","large",1,"sch",4,3,2,2,3,2,2,1,"13601","56","male","man","","caucasian","","No","",""
"4","644456244b8bca2f94fae056","svTrial","survey",11,316721,"0.0-2.0-9.0","65553732575bb29198a888d7","65565bd369e65158ed81bd04",7,"14821","Akita_small_pos_3_1.jpg",NA,NA,NA,NA,NA,NA,NA,NA,NA,NA,NA,NA,NA,NA,NA,NA,"[]","small",2,"pos",3,4,1,1,1,1,1,1,"13601","56","male","man","","caucasian","","No","",""
"5","644456244b8bca2f94fae056","svTrial","survey",12,335519,"0.0-2.0-10.0","65553732575bb29198a888d7","65565bd369e65158ed81bd04",7,"18781","Hokkaido_middle_pos_5_3.jpg",NA,NA,NA,NA,NA,NA,NA,NA,NA,NA,NA,NA,NA,NA,NA,NA,"[]","middle",1,"pos",5,5,2,1,2,1,2,1,"13601","56","male","man","","caucasian","","No","",""
"6","644456244b8bca2f94fae056","svTrial","survey",13,361031,"0.0-2.0-11.0","65553732575bb29198a888d7","65565bd369e65158ed81bd04",7,"25490","Niigata_large_sch_12_2.jpg",NA,NA,NA,NA,NA,NA,NA,NA,NA,NA,NA,NA,NA,NA,NA,NA,"[]","middle",2,"sch",12,6,3,2,2,2,2,1,"13601","56","male","man","","caucasian","","No","",""
"7","644456244b8bca2f94fae056","svTrial","survey",14,379441,"0.0-2.0-12.0","65553732575bb29198a888d7","65565bd369e65158ed81bd04",7,"18388","Hokkaido_large_pos_8_0.jpg",NA,NA,NA,NA,NA,NA,NA,NA,NA,NA,NA,NA,NA,NA,NA,NA,"[]","small",1,"sch",8,7,1,1,1,1,1,1,"13601","56","male","man","","caucasian","","No","",""
"8","644456244b8bca2f94fae056","svTrial","survey",16,415152,"0.0-2.0-14.0","65553732575bb29198a888d7","65565bd369e65158ed81bd04",7,"26153","Ishikawa_middle_sch_6_1.jpg",NA,NA,NA,NA,NA,NA,NA,NA,NA,NA,NA,NA,NA,NA,NA,NA,"[]","large",2,"sch",6,8,4,3,4,3,3,1,"13601","56","male","man","","caucasian","","No","",""
"9","644456244b8bca2f94fae056","svTrial","survey",17,433075,"0.0-2.0-15.0","65553732575bb29198a888d7","65565bd369e65158ed81bd04",7,"17912","Tokyo_middle_sch_1_0.jpg",NA,NA,NA,NA,NA,NA,NA,NA,NA,NA,NA,NA,NA,NA,NA,NA,"[]","large",1,"sch",1,9,2,2,2,2,2,1,"13601","56","male","man","","caucasian","","No","",""
"10","644456244b8bca2f94fae056","svTrial","survey",18,458052,"0.0-2.0-16.0","65553732575bb29198a888d7","65565bd369e65158ed81bd04",7,"24957","Tokyo_large_sch_4_3.jpg",NA,NA,NA,NA,NA,NA,NA,NA,NA,NA,NA,NA,NA,NA,NA,NA,"[]","small",1,"pos",4,10,5,4,5,5,4,1,"13601","56","male","man","","caucasian","","No","",""
"11","644456244b8bca2f94fae056","svTrial","survey",19,488860,"0.0-2.0-17.0","65553732575bb29198a888d7","65565bd369e65158ed81bd04",7,"30793","Niigata_large_pos_7_3.jpg",NA,NA,NA,NA,NA,NA,NA,NA,NA,NA,NA,NA,NA,NA,NA,NA,"[]","middle",2,"sch",7,11,3,3,3,3,3,1,"13601","56","male","man","","caucasian","","No","",""
"12","644456244b8bca2f94fae056","svTrial","survey",20,512572,"0.0-2.0-18.0","65553732575bb29198a888d7","65565bd369e65158ed81bd04",7,"23697","Niigata_large_sch_6_2.jpg",NA,NA,NA,NA,NA,NA,NA,NA,NA,NA,NA,NA,NA,NA,NA,NA,"[]","small",2,"sch",6,12,5,3,5,4,4,1,"13601","56","male","man","","caucasian","","No","",""
"13","644456244b8bca2f94fae056","svTrial","survey",21,532351,"0.0-2.0-19.0","65553732575bb29198a888d7","65565bd369e65158ed81bd04",7,"19755","Hokkaido_small_sch_1_1.jpg",NA,NA,NA,NA,NA,NA,NA,NA,NA,NA,NA,NA,NA,NA,NA,NA,"[]","small",1,"pos",1,13,1,2,1,1,1,1,"13601","56","male","man","","caucasian","","No","",""
"14","644456244b8bca2f94fae056","svTrial","survey",22,546745,"0.0-2.0-20.0","65553732575bb29198a888d7","65565bd369e65158ed81bd04",7,"14376","Ishikawa_small_pos_2_0.jpg",NA,NA,NA,NA,NA,NA,NA,NA,NA,NA,NA,NA,NA,NA,NA,NA,"[]","middle",2,"pos",2,14,1,2,2,1,2,1,"13601","56","male","man","","caucasian","","No","",""
"15","644456244b8bca2f94fae056","svTrial","survey",23,566343,"0.0-2.0-21.0","65553732575bb29198a888d7","65565bd369e65158ed81bd04",7,"19584","Akita_middle_pos_6_1.jpg",NA,NA,NA,NA,NA,NA,NA,NA,NA,NA,NA,NA,NA,NA,NA,NA,"[]","large",2,"sch",6,15,4,3,3,3,3,1,"13601","56","male","man","","caucasian","","No","",""
"16","644456244b8bca2f94fae056","svTrial","survey",24,582537,"0.0-2.0-22.0","65553732575bb29198a888d7","65565bd369e65158ed81bd04",7,"16182","Hokkaido_large_sch_9_0.jpg",NA,NA,NA,NA,NA,NA,NA,NA,NA,NA,NA,NA,NA,NA,NA,NA,"[]","large",1,"sch",9,16,2,2,2,2,2,1,"13601","56","male","man","","caucasian","","No","",""
"17","644456244b8bca2f94fae056","svTrial","survey",25,597667,"0.0-2.0-23.0","65553732575bb29198a888d7","65565bd369e65158ed81bd04",7,"15120","Ishikawa_small_pos_1_3.jpg",NA,NA,NA,NA,NA,NA,NA,NA,NA,NA,NA,NA,NA,NA,NA,NA,"[]","small",2,"pos",1,17,1,1,1,1,1,1,"13601","56","male","man","","caucasian","","No","",""
"18","644456244b8bca2f94fae056","svTrial","survey",26,619125,"0.0-2.0-24.0","65553732575bb29198a888d7","65565bd369e65158ed81bd04",7,"21444","Tokyo_middle_pos_4_2.jpg",NA,NA,NA,NA,NA,NA,NA,NA,NA,NA,NA,NA,NA,NA,NA,NA,"[]","small",1,"pos",4,18,1,2,2,2,1,1,"13601","56","male","man","","caucasian","","No","",""
"19","644456244b8bca2f94fae056","svTrial","survey",27,635144,"0.0-2.0-25.0","65553732575bb29198a888d7","65565bd369e65158ed81bd04",7,"16004","Toyama_middle_sch_2_0.jpg",NA,NA,NA,NA,NA,NA,NA,NA,NA,NA,NA,NA,NA,NA,NA,NA,"[]","large",2,"pos",2,19,1,2,2,2,1,1,"13601","56","male","man","","caucasian","","No","",""
"20","644456244b8bca2f94fae056","svTrial","survey",28,656454,"0.0-2.0-26.0","65553732575bb29198a888d7","65565bd369e65158ed81bd04",7,"21295","Hokkaido_large_pos_6_0.jpg",NA,NA,NA,NA,NA,NA,NA,NA,NA,NA,NA,NA,NA,NA,NA,NA,"[]","middle",1,"pos",6,20,2,1,2,2,2,1,"13601","56","male","man","","caucasian","","No","",""
"21","644456244b8bca2f94fae056","svTrial","survey",29,673681,"0.0-2.0-27.0","65553732575bb29198a888d7","65565bd369e65158ed81bd04",7,"17214","Tokyo_large_pos_11_0.jpg",NA,NA,NA,NA,NA,NA,NA,NA,NA,NA,NA,NA,NA,NA,NA,NA,"[]","small",1,"sch",11,21,NA,1,1,2,1,1,"13601","56","male","man","","caucasian","","No","",""
"22","644456244b8bca2f94fae056","svTrial","survey",30,695033,"0.0-2.0-28.0","65553732575bb29198a888d7","65565bd369e65158ed81bd04",7,"21341","Hokkaido_small_pos_4_1.jpg",NA,NA,NA,NA,NA,NA,NA,NA,NA,NA,NA,NA,NA,NA,NA,NA,"[]","small",1,"pos",4,22,2,2,2,2,2,1,"13601","56","male","man","","caucasian","","No","",""
"23","644456244b8bca2f94fae056","svTrial","survey",31,721363,"0.0-2.0-29.0","65553732575bb29198a888d7","65565bd369e65158ed81bd04",7,"26318","Toyama_large_sch_7_1.jpg",NA,NA,NA,NA,NA,NA,NA,NA,NA,NA,NA,NA,NA,NA,NA,NA,"[]","small",2,"sch",7,23,4,1,3,3,1,1,"13601","56","male","man","","caucasian","","No","",""
"24","644456244b8bca2f94fae056","svTrial","survey",32,738692,"0.0-2.0-30.0","65553732575bb29198a888d7","65565bd369e65158ed81bd04",7,"17310","Akita_small_pos_1_3.jpg",NA,NA,NA,NA,NA,NA,NA,NA,NA,NA,NA,NA,NA,NA,NA,NA,"[]","middle",2,"pos",1,24,2,1,2,1,1,1,"13601","56","male","man","","caucasian","","No","",""
"25","644456244b8bca2f94fae056","svTrial","survey",34,781203,"0.0-2.0-32.0","65553732575bb29198a888d7","65565bd369e65158ed81bd04",7,"26730","Ishikawa_large_sch_8_1.jpg",NA,NA,NA,NA,NA,NA,NA,NA,NA,NA,NA,NA,NA,NA,NA,NA,"[]","large",2,"pos",8,25,3,1,3,2,1,1,"13601","56","male","man","","caucasian","","No","",""
"26","644456244b8bca2f94fae056","svTrial","survey",35,798662,"0.0-2.0-33.0","65553732575bb29198a888d7","65565bd369e65158ed81bd04",7,"17447","Niigata_middle_sch_1_1.jpg",NA,NA,NA,NA,NA,NA,NA,NA,NA,NA,NA,NA,NA,NA,NA,NA,"[]","large",2,"sch",1,26,4,2,4,4,3,1,"13601","56","male","man","","caucasian","","No","",""
"27","644456244b8bca2f94fae056","svTrial","survey",36,819529,"0.0-2.0-34.0","65553732575bb29198a888d7","65565bd369e65158ed81bd04",7,"20848","Tokyo_large_sch_6_2.jpg",NA,NA,NA,NA,NA,NA,NA,NA,NA,NA,NA,NA,NA,NA,NA,NA,"[]","large",1,"sch",6,27,4,4,4,4,3,1,"13601","56","male","man","","caucasian","","No","",""
"28","644456244b8bca2f94fae056","svTrial","survey",37,841890,"0.0-2.0-35.0","65553732575bb29198a888d7","65565bd369e65158ed81bd04",7,"22345","Ishikawa_middle_sch_3_1.jpg",NA,NA,NA,NA,NA,NA,NA,NA,NA,NA,NA,NA,NA,NA,NA,NA,"[]","small",2,"sch",3,28,2,2,3,2,2,1,"13601","56","male","man","","caucasian","","No","",""
"29","644456244b8bca2f94fae056","svTrial","survey",38,865135,"0.0-2.0-36.0","65553732575bb29198a888d7","65565bd369e65158ed81bd04",7,"23227","Okinawa_middle_pos_5_3.jpg",NA,NA,NA,NA,NA,NA,NA,NA,NA,NA,NA,NA,NA,NA,NA,NA,"[]","large",1,"sch",5,29,3,4,3,4,3,1,"13601","56","male","man","","caucasian","","No","",""
"30","644456244b8bca2f94fae056","svTrial","survey",39,885574,"0.0-2.0-37.0","65553732575bb29198a888d7","65565bd369e65158ed81bd04",7,"20421","Ishikawa_middle_sch_7_0.jpg",NA,NA,NA,NA,NA,NA,NA,NA,NA,NA,NA,NA,NA,NA,NA,NA,"[]","large",2,"pos",7,30,4,3,3,4,3,1,"13601","56","male","man","","caucasian","","No","",""
"31","644456244b8bca2f94fae056","svTrial","survey",40,903777,"0.0-2.0-38.0","65553732575bb29198a888d7","65565bd369e65158ed81bd04",7,"18188","Niigata_middle_sch_3_1.jpg",NA,NA,NA,NA,NA,NA,NA,NA,NA,NA,NA,NA,NA,NA,NA,NA,"[]","middle",2,"pos",3,31,3,2,3,2,2,1,"13601","56","male","man","","caucasian","","No","",""
"32","644456244b8bca2f94fae056","svTrial","survey",41,924807,"0.0-2.0-39.0","65553732575bb29198a888d7","65565bd369e65158ed81bd04",7,"21009","Niigata_small_pos_4_3.jpg",NA,NA,NA,NA,NA,NA,NA,NA,NA,NA,NA,NA,NA,NA,NA,NA,"[]","middle",2,"sch",4,32,4,2,4,3,3,1,"13601","56","male","man","","caucasian","","No","",""
"33","644456244b8bca2f94fae056","svTrial","survey",42,953584,"0.0-2.0-40.0","65553732575bb29198a888d7","65565bd369e65158ed81bd04",7,"28761","Tokyo_large_sch_3_3.jpg",NA,NA,NA,NA,NA,NA,NA,NA,NA,NA,NA,NA,NA,NA,NA,NA,"[]","large",1,"sch",3,33,3,1,2,2,2,1,"13601","56","male","man","","caucasian","","No","",""
"34","644456244b8bca2f94fae056","svTrial","survey",43,975588,"0.0-2.0-41.0","65553732575bb29198a888d7","65565bd369e65158ed81bd04",7,"21993","Akita_middle_pos_4_1.jpg",NA,NA,NA,NA,NA,NA,NA,NA,NA,NA,NA,NA,NA,NA,NA,NA,"[]","large",2,"pos",4,34,2,2,2,2,1,1,"13601","56","male","man","","caucasian","","No","",""
"35","644456244b8bca2f94fae056","svTrial","survey",44,996085,"0.0-2.0-42.0","65553732575bb29198a888d7","65565bd369e65158ed81bd04",7,"20477","Kanagawa_large_sch_1_2.jpg",NA,NA,NA,NA,NA,NA,NA,NA,NA,NA,NA,NA,NA,NA,NA,NA,"[]","middle",1,"sch",1,35,5,5,5,4,4,1,"13601","56","male","man","","caucasian","","No","",""
"36","644456244b8bca2f94fae056","svTrial","survey",45,1013190,"0.0-2.0-43.0","65553732575bb29198a888d7","65565bd369e65158ed81bd04",7,"17090","Hokkaido_large_sch_7_3.jpg",NA,NA,NA,NA,NA,NA,NA,NA,NA,NA,NA,NA,NA,NA,NA,NA,"[]","large",1,"sch",7,36,2,1,1,2,2,1,"13601","56","male","man","","caucasian","","No","",""
"37","644456244b8bca2f94fae056","svTrial","survey",46,1034697,"0.0-2.0-44.0","65553732575bb29198a888d7","65565bd369e65158ed81bd04",7,"21494","Okinawa_small_sch_3_3.jpg",NA,NA,NA,NA,NA,NA,NA,NA,NA,NA,NA,NA,NA,NA,NA,NA,"[]","large",1,"sch",3,37,5,4,5,5,4,1,"13601","56","male","man","","caucasian","","No","",""
"38","644456244b8bca2f94fae056","svTrial","survey",47,1055300,"0.0-2.0-45.0","65553732575bb29198a888d7","65565bd369e65158ed81bd04",7,"20584","Akita_middle_sch_3_1.jpg",NA,NA,NA,NA,NA,NA,NA,NA,NA,NA,NA,NA,NA,NA,NA,NA,"[]","large",2,"pos",3,38,4,2,4,4,3,1,"13601","56","male","man","","caucasian","","No","",""
"39","644456244b8bca2f94fae056","svTrial","survey",48,1072711,"0.0-2.0-46.0","65553732575bb29198a888d7","65565bd369e65158ed81bd04",7,"17395","Okinawa_large_pos_7_3.jpg",NA,NA,NA,NA,NA,NA,NA,NA,NA,NA,NA,NA,NA,NA,NA,NA,"[]","large",1,"sch",7,39,2,2,3,2,3,1,"13601","56","male","man","","caucasian","","No","",""
"40","644456244b8bca2f94fae056","svTrial","survey",49,1090688,"0.0-2.0-47.0","65553732575bb29198a888d7","65565bd369e65158ed81bd04",7,"17963","Okinawa_middle_sch_6_3.jpg",NA,NA,NA,NA,NA,NA,NA,NA,NA,NA,NA,NA,NA,NA,NA,NA,"[]","small",1,"sch",6,40,2,2,2,2,2,1,"13601","56","male","man","","caucasian","","No","",""
"41","644456244b8bca2f94fae056","svTrial","survey",50,1111815,"0.0-2.0-48.0","65553732575bb29198a888d7","65565bd369e65158ed81bd04",7,"21107","Okinawa_middle_sch_8_3.jpg",NA,NA,NA,NA,NA,NA,NA,NA,NA,NA,NA,NA,NA,NA,NA,NA,"[]","large",1,"sch",8,41,3,2,2,2,2,1,"13601","56","male","man","","caucasian","","No","",""
"42","644456244b8bca2f94fae056","svTrial","survey",51,1136417,"0.0-2.0-49.0","65553732575bb29198a888d7","65565bd369e65158ed81bd04",7,"24585","Akita_middle_pos_8_0.jpg",NA,NA,NA,NA,NA,NA,NA,NA,NA,NA,NA,NA,NA,NA,NA,NA,"[]","small",2,"sch",8,42,4,3,4,3,3,1,"13601","56","male","man","","caucasian","","No","",""
"43","644456244b8bca2f94fae056","svTrial","survey",52,1157196,"0.0-2.0-50.0","65553732575bb29198a888d7","65565bd369e65158ed81bd04",7,"20764","Toyama_large_sch_3_0.jpg",NA,NA,NA,NA,NA,NA,NA,NA,NA,NA,NA,NA,NA,NA,NA,NA,"[]","large",2,"sch",3,43,2,2,2,2,2,1,"13601","56","male","man","","caucasian","","No","",""
"44","644456244b8bca2f94fae056","svTrial","survey",53,1174483,"0.0-2.0-51.0","65553732575bb29198a888d7","65565bd369e65158ed81bd04",7,"17268","Niigata_small_sch_2_2.jpg",NA,NA,NA,NA,NA,NA,NA,NA,NA,NA,NA,NA,NA,NA,NA,NA,"[]","small",2,"sch",2,44,4,4,4,4,3,1,"13601","56","male","man","","caucasian","","No","",""
"45","644456244b8bca2f94fae056","svTrial","survey",54,1196536,"0.0-2.0-52.0","65553732575bb29198a888d7","65565bd369e65158ed81bd04",7,"22037","Kanagawa_middle_sch_4_3.jpg",NA,NA,NA,NA,NA,NA,NA,NA,NA,NA,NA,NA,NA,NA,NA,NA,"[]","middle",1,"sch",4,45,3,3,3,2,3,1,"13601","56","male","man","","caucasian","","No","",""
"46","644456244b8bca2f94fae056","svTrial","survey",55,1209893,"0.0-2.0-53.0","65553732575bb29198a888d7","65565bd369e65158ed81bd04",7,"13341","Hokkaido_middle_sch_8_1.jpg",NA,NA,NA,NA,NA,NA,NA,NA,NA,NA,NA,NA,NA,NA,NA,NA,"[]","large",1,"pos",8,46,5,5,5,4,4,1,"13601","56","male","man","","caucasian","","No","",""
"47","644456244b8bca2f94fae056","svTrial","survey",56,1225085,"0.0-2.0-54.0","65553732575bb29198a888d7","65565bd369e65158ed81bd04",7,"15171","Kanagawa_large_pos_8_0.jpg",NA,NA,NA,NA,NA,NA,NA,NA,NA,NA,NA,NA,NA,NA,NA,NA,"[]","large",1,"pos",8,47,3,4,3,3,3,1,"13601","56","male","man","","caucasian","","No","",""
"48","644456244b8bca2f94fae056","svTrial","survey",57,1254235,"0.0-2.0-55.0","65553732575bb29198a888d7","65565bd369e65158ed81bd04",7,"29134","Ishikawa_middle_pos_5_3.jpg",NA,NA,NA,NA,NA,NA,NA,NA,NA,NA,NA,NA,NA,NA,NA,NA,"[]","large",2,"sch",5,48,2,3,3,3,2,1,"13601","56","male","man","","caucasian","","No","",""
