"","subject_id","task","trial_type","trial_index","time_elapsed","internal_node_id","study_id","session_id","group","rt","stimulus","width","height","webaudio","browser","browser_version","mobile","os","fullscreen","vsync_rate","webcam","microphone","success","timeout","failed_images","failed_audio","failed_video","accuracy","size","culture","loct","number","document.id","ambiguous","objects","invisible","chaos","complex","passedChecks","zipcode","age","sex","gender","gender-self-describe","ethnicity","ethnicity-self-describe","outsideUS","outsideUS_years","surveyComments"
"1","653166fa42afa6ecf4fc73c4","svTrial","survey",8,140947,"0.0-2.0-6.0","65553732575bb29198a888d7","65565c75e83352713e56b2f6",4,"50889","Ishikawa_middle_sch_1_3.jpg",NA,NA,NA,NA,NA,NA,NA,NA,NA,NA,NA,NA,NA,NA,NA,NA,"[]","small",2,"sch",1,1,2,4,1,4,3,1,"77346","35","male","man","","latino","","No","","no"
"2","653166fa42afa6ecf4fc73c4","svTrial","survey",9,169549,"0.0-2.0-7.0","65553732575bb29198a888d7","65565c75e83352713e56b2f6",4,"28591","Hokkaido_middle_sch_7_1.jpg",NA,NA,NA,NA,NA,NA,NA,NA,NA,NA,NA,NA,NA,NA,NA,NA,"[]","small",1,"pos",7,2,2,5,2,1,4,1,"77346","35","male","man","","latino","","No","","no"
"3","653166fa42afa6ecf4fc73c4","svTrial","survey",10,197980,"0.0-2.0-8.0","65553732575bb29198a888d7","65565c75e83352713e56b2f6",4,"28421","Ishikawa_large_pos_1_1.jpg",NA,NA,NA,NA,NA,NA,NA,NA,NA,NA,NA,NA,NA,NA,NA,NA,"[]","middle",2,"sch",1,3,1,2,1,1,1,1,"77346","35","male","man","","latino","","No","","no"
"4","653166fa42afa6ecf4fc73c4","svTrial","survey",11,212740,"0.0-2.0-9.0","65553732575bb29198a888d7","65565c75e83352713e56b2f6",4,"14751","Okinawa_small_pos_4_2.jpg",NA,NA,NA,NA,NA,NA,NA,NA,NA,NA,NA,NA,NA,NA,NA,NA,"[]","middle",1,"sch",4,4,1,4,1,1,1,1,"77346","35","male","man","","latino","","No","","no"
"5","653166fa42afa6ecf4fc73c4","svTrial","survey",12,234036,"0.0-2.0-10.0","65553732575bb29198a888d7","65565c75e83352713e56b2f6",4,"21288","Ishikawa_middle_sch_2_2.jpg",NA,NA,NA,NA,NA,NA,NA,NA,NA,NA,NA,NA,NA,NA,NA,NA,"[]","middle",2,"pos",2,5,1,1,2,3,2,1,"77346","35","male","man","","latino","","No","","no"
"6","653166fa42afa6ecf4fc73c4","svTrial","survey",13,253219,"0.0-2.0-11.0","65553732575bb29198a888d7","65565c75e83352713e56b2f6",4,"19175","Niigata_large_pos_10_0.jpg",NA,NA,NA,NA,NA,NA,NA,NA,NA,NA,NA,NA,NA,NA,NA,NA,"[]","small",2,"pos",10,6,1,4,1,1,2,1,"77346","35","male","man","","latino","","No","","no"
"7","653166fa42afa6ecf4fc73c4","svTrial","survey",14,264843,"0.0-2.0-12.0","65553732575bb29198a888d7","65565c75e83352713e56b2f6",4,"11617","Ishikawa_large_sch_9_3.jpg",NA,NA,NA,NA,NA,NA,NA,NA,NA,NA,NA,NA,NA,NA,NA,NA,"[]","large",2,"pos",9,7,1,1,1,1,2,1,"77346","35","male","man","","latino","","No","","no"
"8","653166fa42afa6ecf4fc73c4","svTrial","survey",15,278851,"0.0-2.0-13.0","65553732575bb29198a888d7","65565c75e83352713e56b2f6",4,"14001","Tokyo_large_pos_3_0.jpg",NA,NA,NA,NA,NA,NA,NA,NA,NA,NA,NA,NA,NA,NA,NA,NA,"[]","large",1,"sch",3,8,1,3,1,1,2,1,"77346","35","male","man","","latino","","No","","no"
"9","653166fa42afa6ecf4fc73c4","svTrial","survey",16,299059,"0.0-2.0-14.0","65553732575bb29198a888d7","65565c75e83352713e56b2f6",4,"20200","Okinawa_large_sch_7_3.jpg",NA,NA,NA,NA,NA,NA,NA,NA,NA,NA,NA,NA,NA,NA,NA,NA,"[]","small",1,"pos",7,9,3,4,1,1,2,1,"77346","35","male","man","","latino","","No","","no"
"10","653166fa42afa6ecf4fc73c4","svTrial","survey",17,307275,"0.0-2.0-15.0","65553732575bb29198a888d7","65565c75e83352713e56b2f6",4,"8210","Tokyo_small_pos_1_1.jpg",NA,NA,NA,NA,NA,NA,NA,NA,NA,NA,NA,NA,NA,NA,NA,NA,"[]","large",1,"pos",1,10,1,5,1,1,3,1,"77346","35","male","man","","latino","","No","","no"
"11","653166fa42afa6ecf4fc73c4","svTrial","survey",18,317515,"0.0-2.0-16.0","65553732575bb29198a888d7","65565c75e83352713e56b2f6",4,"10233","Toyama_middle_sch_7_3.jpg",NA,NA,NA,NA,NA,NA,NA,NA,NA,NA,NA,NA,NA,NA,NA,NA,"[]","middle",2,"pos",7,11,1,4,1,1,3,1,"77346","35","male","man","","latino","","No","","no"
"12","653166fa42afa6ecf4fc73c4","svTrial","survey",19,325452,"0.0-2.0-17.0","65553732575bb29198a888d7","65565c75e83352713e56b2f6",4,"7930","Toyama_middle_sch_3_2.jpg",NA,NA,NA,NA,NA,NA,NA,NA,NA,NA,NA,NA,NA,NA,NA,NA,"[]","large",2,"sch",3,12,1,1,1,1,1,1,"77346","35","male","man","","latino","","No","","no"
"13","653166fa42afa6ecf4fc73c4","svTrial","survey",20,351891,"0.0-2.0-18.0","65553732575bb29198a888d7","65565c75e83352713e56b2f6",4,"26433","Hokkaido_large_pos_1_1.jpg",NA,NA,NA,NA,NA,NA,NA,NA,NA,NA,NA,NA,NA,NA,NA,NA,"[]","large",1,"sch",1,13,3,3,2,2,3,1,"77346","35","male","man","","latino","","No","","no"
"14","653166fa42afa6ecf4fc73c4","svTrial","survey",21,363963,"0.0-2.0-19.0","65553732575bb29198a888d7","65565c75e83352713e56b2f6",4,"12065","Tokyo_middle_pos_7_1.jpg",NA,NA,NA,NA,NA,NA,NA,NA,NA,NA,NA,NA,NA,NA,NA,NA,"[]","middle",1,"pos",7,14,1,4,1,3,3,1,"77346","35","male","man","","latino","","No","","no"
"15","653166fa42afa6ecf4fc73c4","svTrial","survey",22,373555,"0.0-2.0-20.0","65553732575bb29198a888d7","65565c75e83352713e56b2f6",4,"9584","Tokyo_middle_sch_7_2.jpg",NA,NA,NA,NA,NA,NA,NA,NA,NA,NA,NA,NA,NA,NA,NA,NA,"[]","middle",1,"sch",7,15,1,3,1,2,3,1,"77346","35","male","man","","latino","","No","","no"
"16","653166fa42afa6ecf4fc73c4","svTrial","survey",23,382651,"0.0-2.0-21.0","65553732575bb29198a888d7","65565c75e83352713e56b2f6",4,"9086","Kanagawa_large_sch_9_2.jpg",NA,NA,NA,NA,NA,NA,NA,NA,NA,NA,NA,NA,NA,NA,NA,NA,"[]","large",1,"pos",9,16,1,3,1,1,1,1,"77346","35","male","man","","latino","","No","","no"
"17","653166fa42afa6ecf4fc73c4","svTrial","survey",24,391963,"0.0-2.0-22.0","65553732575bb29198a888d7","65565c75e83352713e56b2f6",4,"9305","Okinawa_middle_pos_2_1.jpg",NA,NA,NA,NA,NA,NA,NA,NA,NA,NA,NA,NA,NA,NA,NA,NA,"[]","small",1,"sch",2,17,1,5,1,1,2,1,"77346","35","male","man","","latino","","No","","no"
"18","653166fa42afa6ecf4fc73c4","svTrial","survey",25,405747,"0.0-2.0-23.0","65553732575bb29198a888d7","65565c75e83352713e56b2f6",4,"13776","Kanagawa_large_sch_2_0.jpg",NA,NA,NA,NA,NA,NA,NA,NA,NA,NA,NA,NA,NA,NA,NA,NA,"[]","large",1,"pos",2,18,4,3,3,3,3,1,"77346","35","male","man","","latino","","No","","no"
"19","653166fa42afa6ecf4fc73c4","svTrial","survey",26,413891,"0.0-2.0-24.0","65553732575bb29198a888d7","65565c75e83352713e56b2f6",4,"8137","Kanagawa_middle_pos_8_3.jpg",NA,NA,NA,NA,NA,NA,NA,NA,NA,NA,NA,NA,NA,NA,NA,NA,"[]","middle",1,"sch",8,19,1,5,1,1,4,1,"77346","35","male","man","","latino","","No","","no"
"20","653166fa42afa6ecf4fc73c4","svTrial","survey",27,420922,"0.0-2.0-25.0","65553732575bb29198a888d7","65565c75e83352713e56b2f6",4,"7023","Ishikawa_middle_sch_5_0.jpg",NA,NA,NA,NA,NA,NA,NA,NA,NA,NA,NA,NA,NA,NA,NA,NA,"[]","small",2,"sch",5,20,1,5,1,1,3,1,"77346","35","male","man","","latino","","No","","no"
"21","653166fa42afa6ecf4fc73c4","svTrial","survey",28,429074,"0.0-2.0-26.0","65553732575bb29198a888d7","65565c75e83352713e56b2f6",4,"8144","Niigata_large_sch_5_1.jpg",NA,NA,NA,NA,NA,NA,NA,NA,NA,NA,NA,NA,NA,NA,NA,NA,"[]","small",2,"pos",5,21,1,5,1,1,3,1,"77346","35","male","man","","latino","","No","","no"
"22","653166fa42afa6ecf4fc73c4","svTrial","survey",29,436458,"0.0-2.0-27.0","65553732575bb29198a888d7","65565c75e83352713e56b2f6",4,"7378","Akita_small_pos_4_0.jpg",NA,NA,NA,NA,NA,NA,NA,NA,NA,NA,NA,NA,NA,NA,NA,NA,"[]","small",2,"pos",4,22,1,5,1,1,5,1,"77346","35","male","man","","latino","","No","","no"
"23","653166fa42afa6ecf4fc73c4","svTrial","survey",30,447395,"0.0-2.0-28.0","65553732575bb29198a888d7","65565c75e83352713e56b2f6",4,"10929","Okinawa_large_pos_8_3.jpg",NA,NA,NA,NA,NA,NA,NA,NA,NA,NA,NA,NA,NA,NA,NA,NA,"[]","middle",1,"pos",8,23,1,2,1,1,4,1,"77346","35","male","man","","latino","","No","","no"
"24","653166fa42afa6ecf4fc73c4","svTrial","survey",31,454353,"0.0-2.0-29.0","65553732575bb29198a888d7","65565c75e83352713e56b2f6",4,"6952","Ishikawa_small_pos_3_2.jpg",NA,NA,NA,NA,NA,NA,NA,NA,NA,NA,NA,NA,NA,NA,NA,NA,"[]","middle",2,"pos",3,24,1,5,1,1,4,1,"77346","35","male","man","","latino","","No","","no"
"25","653166fa42afa6ecf4fc73c4","svTrial","survey",33,480627,"0.0-2.0-31.0","65553732575bb29198a888d7","65565c75e83352713e56b2f6",4,"10504","Niigata_middle_pos_5_1.jpg",NA,NA,NA,NA,NA,NA,NA,NA,NA,NA,NA,NA,NA,NA,NA,NA,"[]","middle",2,"pos",5,25,1,4,1,1,4,1,"77346","35","male","man","","latino","","No","","no"
"26","653166fa42afa6ecf4fc73c4","svTrial","survey",35,499052,"0.0-2.0-33.0","65553732575bb29198a888d7","65565c75e83352713e56b2f6",4,"13311","Akita_middle_sch_5_2.jpg",NA,NA,NA,NA,NA,NA,NA,NA,NA,NA,NA,NA,NA,NA,NA,NA,"[]","small",2,"pos",5,26,1,5,1,1,3,1,"77346","35","male","man","","latino","","No","","no"
"27","653166fa42afa6ecf4fc73c4","svTrial","survey",36,506067,"0.0-2.0-34.0","65553732575bb29198a888d7","65565c75e83352713e56b2f6",4,"7009","Akita_large_sch_11_2.jpg",NA,NA,NA,NA,NA,NA,NA,NA,NA,NA,NA,NA,NA,NA,NA,NA,"[]","small",2,"sch",11,27,1,5,1,1,4,1,"77346","35","male","man","","latino","","No","","no"
"28","653166fa42afa6ecf4fc73c4","svTrial","survey",37,516875,"0.0-2.0-35.0","65553732575bb29198a888d7","65565c75e83352713e56b2f6",4,"10801","Ishikawa_middle_sch_8_2.jpg",NA,NA,NA,NA,NA,NA,NA,NA,NA,NA,NA,NA,NA,NA,NA,NA,"[]","middle",2,"sch",8,28,1,5,1,1,4,1,"77346","35","male","man","","latino","","No","","no"
"29","653166fa42afa6ecf4fc73c4","svTrial","survey",38,525300,"0.0-2.0-36.0","65553732575bb29198a888d7","65565c75e83352713e56b2f6",4,"8415","Kanagawa_large_pos_9_0.jpg",NA,NA,NA,NA,NA,NA,NA,NA,NA,NA,NA,NA,NA,NA,NA,NA,"[]","small",1,"pos",9,29,1,5,1,1,4,1,"77346","35","male","man","","latino","","No","","no"
"30","653166fa42afa6ecf4fc73c4","svTrial","survey",39,533756,"0.0-2.0-37.0","65553732575bb29198a888d7","65565c75e83352713e56b2f6",4,"8449","Akita_large_sch_9_0.jpg",NA,NA,NA,NA,NA,NA,NA,NA,NA,NA,NA,NA,NA,NA,NA,NA,"[]","large",2,"pos",9,30,1,2,1,1,1,1,"77346","35","male","man","","latino","","No","","no"
"31","653166fa42afa6ecf4fc73c4","svTrial","survey",40,541851,"0.0-2.0-38.0","65553732575bb29198a888d7","65565c75e83352713e56b2f6",4,"8088","Toyama_small_pos_2_3.jpg",NA,NA,NA,NA,NA,NA,NA,NA,NA,NA,NA,NA,NA,NA,NA,NA,"[]","small",2,"sch",2,31,1,5,1,1,3,1,"77346","35","male","man","","latino","","No","","no"
"32","653166fa42afa6ecf4fc73c4","svTrial","survey",41,552019,"0.0-2.0-39.0","65553732575bb29198a888d7","65565c75e83352713e56b2f6",4,"10161","Tokyo_middle_pos_8_3.jpg",NA,NA,NA,NA,NA,NA,NA,NA,NA,NA,NA,NA,NA,NA,NA,NA,"[]","large",1,"sch",8,32,1,5,1,1,5,1,"77346","35","male","man","","latino","","No","","no"
"33","653166fa42afa6ecf4fc73c4","svTrial","survey",42,573659,"0.0-2.0-40.0","65553732575bb29198a888d7","65565c75e83352713e56b2f6",4,"21633","Kanagawa_middle_pos_5_0.jpg",NA,NA,NA,NA,NA,NA,NA,NA,NA,NA,NA,NA,NA,NA,NA,NA,"[]","large",1,"pos",5,33,1,5,1,4,4,1,"77346","35","male","man","","latino","","No","","no"
"34","653166fa42afa6ecf4fc73c4","svTrial","survey",43,583754,"0.0-2.0-41.0","65553732575bb29198a888d7","65565c75e83352713e56b2f6",4,"10089","Hokkaido_middle_pos_8_3.jpg",NA,NA,NA,NA,NA,NA,NA,NA,NA,NA,NA,NA,NA,NA,NA,NA,"[]","middle",1,"pos",8,34,1,5,1,4,4,1,"77346","35","male","man","","latino","","No","","no"
"35","653166fa42afa6ecf4fc73c4","svTrial","survey",44,594466,"0.0-2.0-42.0","65553732575bb29198a888d7","65565c75e83352713e56b2f6",4,"10705","Ishikawa_large_sch_12_3.jpg",NA,NA,NA,NA,NA,NA,NA,NA,NA,NA,NA,NA,NA,NA,NA,NA,"[]","middle",2,"pos",12,35,1,3,1,1,1,1,"77346","35","male","man","","latino","","No","","no"
"36","653166fa42afa6ecf4fc73c4","svTrial","survey",45,602187,"0.0-2.0-43.0","65553732575bb29198a888d7","65565c75e83352713e56b2f6",4,"7714","Ishikawa_large_pos_4_3.jpg",NA,NA,NA,NA,NA,NA,NA,NA,NA,NA,NA,NA,NA,NA,NA,NA,"[]","middle",2,"pos",4,36,1,3,1,1,3,1,"77346","35","male","man","","latino","","No","","no"
"37","653166fa42afa6ecf4fc73c4","svTrial","survey",46,613610,"0.0-2.0-44.0","65553732575bb29198a888d7","65565c75e83352713e56b2f6",4,"11418","Ishikawa_middle_sch_4_1.jpg",NA,NA,NA,NA,NA,NA,NA,NA,NA,NA,NA,NA,NA,NA,NA,NA,"[]","middle",2,"sch",4,37,1,3,1,2,3,1,"77346","35","male","man","","latino","","No","","no"
"38","653166fa42afa6ecf4fc73c4","svTrial","survey",47,631355,"0.0-2.0-45.0","65553732575bb29198a888d7","65565c75e83352713e56b2f6",4,"17735","Kanagawa_small_sch_4_1.jpg",NA,NA,NA,NA,NA,NA,NA,NA,NA,NA,NA,NA,NA,NA,NA,NA,"[]","middle",1,"pos",4,38,1,4,1,3,3,1,"77346","35","male","man","","latino","","No","","no"
"39","653166fa42afa6ecf4fc73c4","svTrial","survey",48,649891,"0.0-2.0-46.0","65553732575bb29198a888d7","65565c75e83352713e56b2f6",4,"18529","Ishikawa_large_sch_2_2.jpg",NA,NA,NA,NA,NA,NA,NA,NA,NA,NA,NA,NA,NA,NA,NA,NA,"[]","middle",2,"sch",2,39,1,3,1,2,2,1,"77346","35","male","man","","latino","","No","","no"
"40","653166fa42afa6ecf4fc73c4","svTrial","survey",49,657627,"0.0-2.0-47.0","65553732575bb29198a888d7","65565c75e83352713e56b2f6",4,"7730","Tokyo_large_sch_12_2.jpg",NA,NA,NA,NA,NA,NA,NA,NA,NA,NA,NA,NA,NA,NA,NA,NA,"[]","middle",1,"sch",12,40,1,5,1,3,3,1,"77346","35","male","man","","latino","","No","","no"
"41","653166fa42afa6ecf4fc73c4","svTrial","survey",50,666451,"0.0-2.0-48.0","65553732575bb29198a888d7","65565c75e83352713e56b2f6",4,"8818","Akita_small_sch_3_3.jpg",NA,NA,NA,NA,NA,NA,NA,NA,NA,NA,NA,NA,NA,NA,NA,NA,"[]","large",2,"pos",3,41,1,4,1,3,3,1,"77346","35","male","man","","latino","","No","","no"
"42","653166fa42afa6ecf4fc73c4","svTrial","survey",51,676644,"0.0-2.0-49.0","65553732575bb29198a888d7","65565c75e83352713e56b2f6",4,"10186","Tokyo_middle_sch_3_2.jpg",NA,NA,NA,NA,NA,NA,NA,NA,NA,NA,NA,NA,NA,NA,NA,NA,"[]","middle",1,"pos",3,42,1,1,1,3,3,1,"77346","35","male","man","","latino","","No","","no"
"43","653166fa42afa6ecf4fc73c4","svTrial","survey",52,684923,"0.0-2.0-50.0","65553732575bb29198a888d7","65565c75e83352713e56b2f6",4,"8272","Akita_large_sch_6_2.jpg",NA,NA,NA,NA,NA,NA,NA,NA,NA,NA,NA,NA,NA,NA,NA,NA,"[]","large",2,"sch",6,43,1,3,1,3,3,1,"77346","35","male","man","","latino","","No","","no"
"44","653166fa42afa6ecf4fc73c4","svTrial","survey",53,697220,"0.0-2.0-51.0","65553732575bb29198a888d7","65565c75e83352713e56b2f6",4,"12290","Okinawa_middle_sch_7_2.jpg",NA,NA,NA,NA,NA,NA,NA,NA,NA,NA,NA,NA,NA,NA,NA,NA,"[]","large",1,"pos",7,44,2,5,1,3,3,1,"77346","35","male","man","","latino","","No","","no"
"45","653166fa42afa6ecf4fc73c4","svTrial","survey",54,711668,"0.0-2.0-52.0","65553732575bb29198a888d7","65565c75e83352713e56b2f6",4,"14442","Okinawa_large_pos_6_3.jpg",NA,NA,NA,NA,NA,NA,NA,NA,NA,NA,NA,NA,NA,NA,NA,NA,"[]","middle",1,"pos",6,45,1,4,1,NA,3,1,"77346","35","male","man","","latino","","No","","no"
"46","653166fa42afa6ecf4fc73c4","svTrial","survey",55,723167,"0.0-2.0-53.0","65553732575bb29198a888d7","65565c75e83352713e56b2f6",4,"11492","Tokyo_small_pos_4_1.jpg",NA,NA,NA,NA,NA,NA,NA,NA,NA,NA,NA,NA,NA,NA,NA,NA,"[]","large",1,"sch",4,46,1,2,1,2,2,1,"77346","35","male","man","","latino","","No","","no"
"47","653166fa42afa6ecf4fc73c4","svTrial","survey",56,733899,"0.0-2.0-54.0","65553732575bb29198a888d7","65565c75e83352713e56b2f6",4,"10726","Kanagawa_middle_pos_3_0.jpg",NA,NA,NA,NA,NA,NA,NA,NA,NA,NA,NA,NA,NA,NA,NA,NA,"[]","large",1,"pos",3,47,1,3,1,2,2,1,"77346","35","male","man","","latino","","No","","no"
"48","653166fa42afa6ecf4fc73c4","svTrial","survey",57,744660,"0.0-2.0-55.0","65553732575bb29198a888d7","65565c75e83352713e56b2f6",4,"10750","Akita_large_pos_3_3.jpg",NA,NA,NA,NA,NA,NA,NA,NA,NA,NA,NA,NA,NA,NA,NA,NA,"[]","middle",2,"pos",3,48,1,5,1,3,3,1,"77346","35","male","man","","latino","","No","","no"
