"","subject_id","task","trial_type","trial_index","time_elapsed","internal_node_id","study_id","session_id","group","rt","stimulus","width","height","webaudio","browser","browser_version","mobile","os","fullscreen","vsync_rate","webcam","microphone","success","timeout","failed_images","failed_audio","failed_video","accuracy","size","culture","loct","number","document.id","ambiguous","objects","invisible","chaos","complex","passedChecks","zipcode","age","sex","gender","gender-self-describe","ethnicity","ethnicity-self-describe","outsideUS","outsideUS_years","surveyComments"
"1","6547e851a5ff72124cb9fb1d","svTrial","survey",8,246724,"0.0-2.0-6.0","65553732575bb29198a888d7","655657f33471b6b4fca45043",6,"43228","Akita_large_sch_12_0.jpg",NA,NA,NA,NA,NA,NA,NA,NA,NA,NA,NA,NA,NA,NA,NA,NA,"[]","small",2,"pos",12,1,1,2,1,2,1,1,"48168","40","female","woman","","caucasian","","No","N/A",""
"2","6547e851a5ff72124cb9fb1d","svTrial","survey",10,309825,"0.0-2.0-8.0","65553732575bb29198a888d7","655657f33471b6b4fca45043",6,"54893","Niigata_large_pos_5_3.jpg",NA,NA,NA,NA,NA,NA,NA,NA,NA,NA,NA,NA,NA,NA,NA,NA,"[]","small",2,"sch",5,2,3,4,2,3,4,1,"48168","40","female","woman","","caucasian","","No","N/A",""
"3","6547e851a5ff72124cb9fb1d","svTrial","survey",11,373490,"0.0-2.0-9.0","65553732575bb29198a888d7","655657f33471b6b4fca45043",6,"63644","Niigata_middle_sch_4_0.jpg",NA,NA,NA,NA,NA,NA,NA,NA,NA,NA,NA,NA,NA,NA,NA,NA,"[]","middle",2,"sch",4,3,3,5,5,4,5,1,"48168","40","female","woman","","caucasian","","No","N/A",""
"4","6547e851a5ff72124cb9fb1d","svTrial","survey",12,439179,"0.0-2.0-10.0","65553732575bb29198a888d7","655657f33471b6b4fca45043",6,"65674","Hokkaido_large_sch_5_1.jpg",NA,NA,NA,NA,NA,NA,NA,NA,NA,NA,NA,NA,NA,NA,NA,NA,"[]","middle",1,"pos",5,4,2,3,3,2,3,1,"48168","40","female","woman","","caucasian","","No","N/A",""
"5","6547e851a5ff72124cb9fb1d","svTrial","survey",13,482925,"0.0-2.0-11.0","65553732575bb29198a888d7","655657f33471b6b4fca45043",6,"43731","Niigata_small_pos_2_0.jpg",NA,NA,NA,NA,NA,NA,NA,NA,NA,NA,NA,NA,NA,NA,NA,NA,"[]","large",2,"sch",2,5,3,5,3,3,4,1,"48168","40","female","woman","","caucasian","","No","N/A",""
"6","6547e851a5ff72124cb9fb1d","svTrial","survey",14,530434,"0.0-2.0-12.0","65553732575bb29198a888d7","655657f33471b6b4fca45043",6,"47495","Ishikawa_small_pos_4_3.jpg",NA,NA,NA,NA,NA,NA,NA,NA,NA,NA,NA,NA,NA,NA,NA,NA,"[]","small",2,"sch",4,6,2,4,3,2,3,1,"48168","40","female","woman","","caucasian","","No","N/A",""
"7","6547e851a5ff72124cb9fb1d","svTrial","survey",15,562699,"0.0-2.0-13.0","65553732575bb29198a888d7","655657f33471b6b4fca45043",6,"32255","Kanagawa_middle_pos_1_1.jpg",NA,NA,NA,NA,NA,NA,NA,NA,NA,NA,NA,NA,NA,NA,NA,NA,"[]","small",1,"pos",1,7,4,5,5,5,5,1,"48168","40","female","woman","","caucasian","","No","N/A",""
"8","6547e851a5ff72124cb9fb1d","svTrial","survey",16,586524,"0.0-2.0-14.0","65553732575bb29198a888d7","655657f33471b6b4fca45043",6,"23812","Ishikawa_middle_pos_1_3.jpg",NA,NA,NA,NA,NA,NA,NA,NA,NA,NA,NA,NA,NA,NA,NA,NA,"[]","small",2,"sch",1,8,2,3,3,2,2,1,"48168","40","female","woman","","caucasian","","No","N/A",""
"9","6547e851a5ff72124cb9fb1d","svTrial","survey",17,619713,"0.0-2.0-15.0","65553732575bb29198a888d7","655657f33471b6b4fca45043",6,"33173","Niigata_large_pos_11_2.jpg",NA,NA,NA,NA,NA,NA,NA,NA,NA,NA,NA,NA,NA,NA,NA,NA,"[]","large",2,"sch",11,9,2,4,3,3,3,1,"48168","40","female","woman","","caucasian","","No","N/A",""
"10","6547e851a5ff72124cb9fb1d","svTrial","survey",18,645882,"0.0-2.0-16.0","65553732575bb29198a888d7","655657f33471b6b4fca45043",6,"26155","Okinawa_small_sch_4_3.jpg",NA,NA,NA,NA,NA,NA,NA,NA,NA,NA,NA,NA,NA,NA,NA,NA,"[]","large",1,"sch",4,10,4,1,4,1,1,1,"48168","40","female","woman","","caucasian","","No","N/A",""
"11","6547e851a5ff72124cb9fb1d","svTrial","survey",19,679731,"0.0-2.0-17.0","65553732575bb29198a888d7","655657f33471b6b4fca45043",6,"33840","Hokkaido_large_sch_8_1.jpg",NA,NA,NA,NA,NA,NA,NA,NA,NA,NA,NA,NA,NA,NA,NA,NA,"[]","large",1,"pos",8,11,1,1,1,1,1,1,"48168","40","female","woman","","caucasian","","No","N/A",""
"12","6547e851a5ff72124cb9fb1d","svTrial","survey",20,703794,"0.0-2.0-18.0","65553732575bb29198a888d7","655657f33471b6b4fca45043",6,"24055","Niigata_large_sch_7_1.jpg",NA,NA,NA,NA,NA,NA,NA,NA,NA,NA,NA,NA,NA,NA,NA,NA,"[]","small",2,"pos",7,12,2,1,3,2,1,1,"48168","40","female","woman","","caucasian","","No","N/A",""
"13","6547e851a5ff72124cb9fb1d","svTrial","survey",21,738769,"0.0-2.0-19.0","65553732575bb29198a888d7","655657f33471b6b4fca45043",6,"34966","Hokkaido_middle_pos_3_2.jpg",NA,NA,NA,NA,NA,NA,NA,NA,NA,NA,NA,NA,NA,NA,NA,NA,"[]","middle",1,"pos",3,13,1,2,2,1,1,1,"48168","40","female","woman","","caucasian","","No","N/A",""
"14","6547e851a5ff72124cb9fb1d","svTrial","survey",22,762576,"0.0-2.0-20.0","65553732575bb29198a888d7","655657f33471b6b4fca45043",6,"23793","Akita_large_pos_7_1.jpg",NA,NA,NA,NA,NA,NA,NA,NA,NA,NA,NA,NA,NA,NA,NA,NA,"[]","large",2,"sch",7,14,2,2,3,2,2,1,"48168","40","female","woman","","caucasian","","No","N/A",""
"15","6547e851a5ff72124cb9fb1d","svTrial","survey",23,794976,"0.0-2.0-21.0","65553732575bb29198a888d7","655657f33471b6b4fca45043",6,"32393","Akita_middle_pos_1_3.jpg",NA,NA,NA,NA,NA,NA,NA,NA,NA,NA,NA,NA,NA,NA,NA,NA,"[]","middle",2,"pos",1,15,2,4,3,2,3,1,"48168","40","female","woman","","caucasian","","No","N/A",""
"16","6547e851a5ff72124cb9fb1d","svTrial","survey",24,812439,"0.0-2.0-22.0","65553732575bb29198a888d7","655657f33471b6b4fca45043",6,"17450","Hokkaido_large_pos_9_0.jpg",NA,NA,NA,NA,NA,NA,NA,NA,NA,NA,NA,NA,NA,NA,NA,NA,"[]","small",1,"sch",9,16,1,1,2,1,1,1,"48168","40","female","woman","","caucasian","","No","N/A",""
"17","6547e851a5ff72124cb9fb1d","svTrial","survey",25,832574,"0.0-2.0-23.0","65553732575bb29198a888d7","655657f33471b6b4fca45043",6,"20121","Toyama_middle_sch_8_1.jpg",NA,NA,NA,NA,NA,NA,NA,NA,NA,NA,NA,NA,NA,NA,NA,NA,"[]","middle",2,"pos",8,17,2,3,3,2,2,1,"48168","40","female","woman","","caucasian","","No","N/A",""
"18","6547e851a5ff72124cb9fb1d","svTrial","survey",26,848185,"0.0-2.0-24.0","65553732575bb29198a888d7","655657f33471b6b4fca45043",6,"15602","Akita_middle_sch_8_0.jpg",NA,NA,NA,NA,NA,NA,NA,NA,NA,NA,NA,NA,NA,NA,NA,NA,"[]","large",2,"sch",8,18,2,1,4,1,1,1,"48168","40","female","woman","","caucasian","","No","N/A",""
"19","6547e851a5ff72124cb9fb1d","svTrial","survey",27,878876,"0.0-2.0-25.0","65553732575bb29198a888d7","655657f33471b6b4fca45043",6,"30682","Hokkaido_large_pos_10_3.jpg",NA,NA,NA,NA,NA,NA,NA,NA,NA,NA,NA,NA,NA,NA,NA,NA,"[]","small",1,"sch",10,19,2,3,3,3,3,1,"48168","40","female","woman","","caucasian","","No","N/A",""
"20","6547e851a5ff72124cb9fb1d","svTrial","survey",28,901407,"0.0-2.0-26.0","65553732575bb29198a888d7","655657f33471b6b4fca45043",6,"22523","Toyama_large_pos_1_0.jpg",NA,NA,NA,NA,NA,NA,NA,NA,NA,NA,NA,NA,NA,NA,NA,NA,"[]","large",2,"sch",1,20,1,1,3,1,1,1,"48168","40","female","woman","","caucasian","","No","N/A",""
"21","6547e851a5ff72124cb9fb1d","svTrial","survey",29,923232,"0.0-2.0-27.0","65553732575bb29198a888d7","655657f33471b6b4fca45043",6,"21817","Okinawa_large_sch_5_3.jpg",NA,NA,NA,NA,NA,NA,NA,NA,NA,NA,NA,NA,NA,NA,NA,NA,"[]","small",1,"pos",5,21,4,5,5,3,5,1,"48168","40","female","woman","","caucasian","","No","N/A",""
"22","6547e851a5ff72124cb9fb1d","svTrial","survey",30,966393,"0.0-2.0-28.0","65553732575bb29198a888d7","655657f33471b6b4fca45043",6,"43152","Akita_middle_pos_5_3.jpg",NA,NA,NA,NA,NA,NA,NA,NA,NA,NA,NA,NA,NA,NA,NA,NA,"[]","middle",2,"sch",5,22,1,2,2,1,1,1,"48168","40","female","woman","","caucasian","","No","N/A",""
"23","6547e851a5ff72124cb9fb1d","svTrial","survey",31,995068,"0.0-2.0-29.0","65553732575bb29198a888d7","655657f33471b6b4fca45043",6,"28666","Okinawa_middle_pos_1_0.jpg",NA,NA,NA,NA,NA,NA,NA,NA,NA,NA,NA,NA,NA,NA,NA,NA,"[]","middle",1,"pos",1,23,2,3,2,3,3,1,"48168","40","female","woman","","caucasian","","No","N/A",""
"24","6547e851a5ff72124cb9fb1d","svTrial","survey",32,1015577,"0.0-2.0-30.0","65553732575bb29198a888d7","655657f33471b6b4fca45043",6,"20499","Okinawa_large_pos_3_3.jpg",NA,NA,NA,NA,NA,NA,NA,NA,NA,NA,NA,NA,NA,NA,NA,NA,"[]","large",1,"sch",3,24,2,1,3,1,1,1,"48168","40","female","woman","","caucasian","","No","N/A",""
"25","6547e851a5ff72124cb9fb1d","svTrial","survey",34,1064542,"0.0-2.0-32.0","65553732575bb29198a888d7","655657f33471b6b4fca45043",6,"33179","Okinawa_large_pos_9_2.jpg",NA,NA,NA,NA,NA,NA,NA,NA,NA,NA,NA,NA,NA,NA,NA,NA,"[]","small",1,"sch",9,25,1,1,3,1,1,1,"48168","40","female","woman","","caucasian","","No","N/A",""
"26","6547e851a5ff72124cb9fb1d","svTrial","survey",35,1090011,"0.0-2.0-33.0","65553732575bb29198a888d7","655657f33471b6b4fca45043",6,"25454","Toyama_large_pos_6_2.jpg",NA,NA,NA,NA,NA,NA,NA,NA,NA,NA,NA,NA,NA,NA,NA,NA,"[]","large",2,"pos",6,26,2,1,5,1,1,1,"48168","40","female","woman","","caucasian","","No","N/A",""
"27","6547e851a5ff72124cb9fb1d","svTrial","survey",36,1119754,"0.0-2.0-34.0","65553732575bb29198a888d7","655657f33471b6b4fca45043",6,"29735","Ishikawa_large_pos_2_1.jpg",NA,NA,NA,NA,NA,NA,NA,NA,NA,NA,NA,NA,NA,NA,NA,NA,"[]","large",2,"pos",2,27,4,4,5,3,3,1,"48168","40","female","woman","","caucasian","","No","N/A",""
"28","6547e851a5ff72124cb9fb1d","svTrial","survey",37,1145995,"0.0-2.0-35.0","65553732575bb29198a888d7","655657f33471b6b4fca45043",6,"26218","Okinawa_large_pos_5_0.jpg",NA,NA,NA,NA,NA,NA,NA,NA,NA,NA,NA,NA,NA,NA,NA,NA,"[]","middle",1,"sch",5,28,1,2,2,1,1,1,"48168","40","female","woman","","caucasian","","No","N/A",""
"29","6547e851a5ff72124cb9fb1d","svTrial","survey",38,1174610,"0.0-2.0-36.0","65553732575bb29198a888d7","655657f33471b6b4fca45043",6,"28601","Tokyo_large_sch_2_0.jpg",NA,NA,NA,NA,NA,NA,NA,NA,NA,NA,NA,NA,NA,NA,NA,NA,"[]","large",1,"pos",2,29,1,1,2,1,1,1,"48168","40","female","woman","","caucasian","","No","N/A",""
"30","6547e851a5ff72124cb9fb1d","svTrial","survey",39,1237356,"0.0-2.0-37.0","65553732575bb29198a888d7","655657f33471b6b4fca45043",6,"62730","Toyama_large_pos_11_0.jpg",NA,NA,NA,NA,NA,NA,NA,NA,NA,NA,NA,NA,NA,NA,NA,NA,"[]","small",2,"sch",11,30,2,2,3,1,1,1,"48168","40","female","woman","","caucasian","","No","N/A",""
"31","6547e851a5ff72124cb9fb1d","svTrial","survey",40,1253594,"0.0-2.0-38.0","65553732575bb29198a888d7","655657f33471b6b4fca45043",6,"16226","Ishikawa_large_sch_10_0.jpg",NA,NA,NA,NA,NA,NA,NA,NA,NA,NA,NA,NA,NA,NA,NA,NA,"[]","middle",2,"pos",10,31,1,1,3,1,1,1,"48168","40","female","woman","","caucasian","","No","N/A",""
"32","6547e851a5ff72124cb9fb1d","svTrial","survey",41,1298987,"0.0-2.0-39.0","65553732575bb29198a888d7","655657f33471b6b4fca45043",6,"45380","Ishikawa_large_sch_3_3.jpg",NA,NA,NA,NA,NA,NA,NA,NA,NA,NA,NA,NA,NA,NA,NA,NA,"[]","middle",2,"pos",3,32,4,5,2,3,4,1,"48168","40","female","woman","","caucasian","","No","N/A",""
"33","6547e851a5ff72124cb9fb1d","svTrial","survey",42,1323403,"0.0-2.0-40.0","65553732575bb29198a888d7","655657f33471b6b4fca45043",6,"24407","Hokkaido_middle_sch_4_1.jpg",NA,NA,NA,NA,NA,NA,NA,NA,NA,NA,NA,NA,NA,NA,NA,NA,"[]","middle",1,"sch",4,33,1,1,4,1,1,1,"48168","40","female","woman","","caucasian","","No","N/A",""
"34","6547e851a5ff72124cb9fb1d","svTrial","survey",43,1358071,"0.0-2.0-41.0","65553732575bb29198a888d7","655657f33471b6b4fca45043",6,"34659","Tokyo_middle_sch_2_1.jpg",NA,NA,NA,NA,NA,NA,NA,NA,NA,NA,NA,NA,NA,NA,NA,NA,"[]","middle",1,"pos",2,34,4,3,3,2,2,1,"48168","40","female","woman","","caucasian","","No","N/A",""
"35","6547e851a5ff72124cb9fb1d","svTrial","survey",44,1391639,"0.0-2.0-42.0","65553732575bb29198a888d7","655657f33471b6b4fca45043",6,"33555","Akita_large_pos_5_3.jpg",NA,NA,NA,NA,NA,NA,NA,NA,NA,NA,NA,NA,NA,NA,NA,NA,"[]","large",2,"pos",5,35,2,2,3,1,1,1,"48168","40","female","woman","","caucasian","","No","N/A",""
"36","6547e851a5ff72124cb9fb1d","svTrial","survey",45,1411985,"0.0-2.0-43.0","65553732575bb29198a888d7","655657f33471b6b4fca45043",6,"20337","Okinawa_middle_sch_1_0.jpg",NA,NA,NA,NA,NA,NA,NA,NA,NA,NA,NA,NA,NA,NA,NA,NA,"[]","small",1,"sch",1,36,2,1,4,1,1,1,"48168","40","female","woman","","caucasian","","No","N/A",""
"37","6547e851a5ff72124cb9fb1d","svTrial","survey",46,1436869,"0.0-2.0-44.0","65553732575bb29198a888d7","655657f33471b6b4fca45043",6,"24871","Tokyo_middle_pos_6_2.jpg",NA,NA,NA,NA,NA,NA,NA,NA,NA,NA,NA,NA,NA,NA,NA,NA,"[]","large",1,"pos",6,37,2,2,4,2,2,1,"48168","40","female","woman","","caucasian","","No","N/A",""
"38","6547e851a5ff72124cb9fb1d","svTrial","survey",47,1466535,"0.0-2.0-45.0","65553732575bb29198a888d7","655657f33471b6b4fca45043",6,"29658","Okinawa_small_sch_1_0.jpg",NA,NA,NA,NA,NA,NA,NA,NA,NA,NA,NA,NA,NA,NA,NA,NA,"[]","middle",1,"pos",1,38,3,4,4,3,3,1,"48168","40","female","woman","","caucasian","","No","N/A",""
"39","6547e851a5ff72124cb9fb1d","svTrial","survey",48,1479601,"0.0-2.0-46.0","65553732575bb29198a888d7","655657f33471b6b4fca45043",6,"13053","Ishikawa_small_sch_3_0.jpg",NA,NA,NA,NA,NA,NA,NA,NA,NA,NA,NA,NA,NA,NA,NA,NA,"[]","large",2,"sch",3,39,1,1,4,1,1,1,"48168","40","female","woman","","caucasian","","No","N/A",""
"40","6547e851a5ff72124cb9fb1d","svTrial","survey",49,1505400,"0.0-2.0-47.0","65553732575bb29198a888d7","655657f33471b6b4fca45043",6,"25792","Niigata_large_pos_12_1.jpg",NA,NA,NA,NA,NA,NA,NA,NA,NA,NA,NA,NA,NA,NA,NA,NA,"[]","large",2,"pos",12,40,2,2,5,2,1,1,"48168","40","female","woman","","caucasian","","No","N/A",""
"41","6547e851a5ff72124cb9fb1d","svTrial","survey",50,1538253,"0.0-2.0-48.0","65553732575bb29198a888d7","655657f33471b6b4fca45043",6,"32845","Okinawa_middle_pos_3_1.jpg",NA,NA,NA,NA,NA,NA,NA,NA,NA,NA,NA,NA,NA,NA,NA,NA,"[]","middle",1,"sch",3,41,3,5,1,2,4,1,"48168","40","female","woman","","caucasian","","No","N/A",""
"42","6547e851a5ff72124cb9fb1d","svTrial","survey",51,1562033,"0.0-2.0-49.0","65553732575bb29198a888d7","655657f33471b6b4fca45043",6,"23768","Akita_large_pos_10_2.jpg",NA,NA,NA,NA,NA,NA,NA,NA,NA,NA,NA,NA,NA,NA,NA,NA,"[]","middle",2,"pos",10,42,4,4,4,3,3,1,"48168","40","female","woman","","caucasian","","No","N/A",""
"43","6547e851a5ff72124cb9fb1d","svTrial","survey",52,1600691,"0.0-2.0-50.0","65553732575bb29198a888d7","655657f33471b6b4fca45043",6,"38650","Kanagawa_large_sch_12_2.jpg",NA,NA,NA,NA,NA,NA,NA,NA,NA,NA,NA,NA,NA,NA,NA,NA,"[]","large",1,"pos",12,43,5,5,5,5,5,1,"48168","40","female","woman","","caucasian","","No","N/A",""
"44","6547e851a5ff72124cb9fb1d","svTrial","survey",53,1620222,"0.0-2.0-51.0","65553732575bb29198a888d7","655657f33471b6b4fca45043",6,"19522","Okinawa_large_pos_2_2.jpg",NA,NA,NA,NA,NA,NA,NA,NA,NA,NA,NA,NA,NA,NA,NA,NA,"[]","small",1,"sch",2,44,3,1,4,2,2,1,"48168","40","female","woman","","caucasian","","No","N/A",""
"45","6547e851a5ff72124cb9fb1d","svTrial","survey",54,1639694,"0.0-2.0-52.0","65553732575bb29198a888d7","655657f33471b6b4fca45043",6,"19457","Okinawa_large_sch_12_1.jpg",NA,NA,NA,NA,NA,NA,NA,NA,NA,NA,NA,NA,NA,NA,NA,NA,"[]","large",1,"pos",12,45,1,1,4,1,1,1,"48168","40","female","woman","","caucasian","","No","N/A",""
"46","6547e851a5ff72124cb9fb1d","svTrial","survey",55,1662515,"0.0-2.0-53.0","65553732575bb29198a888d7","655657f33471b6b4fca45043",6,"22814","Hokkaido_small_pos_2_2.jpg",NA,NA,NA,NA,NA,NA,NA,NA,NA,NA,NA,NA,NA,NA,NA,NA,"[]","middle",1,"sch",2,46,1,3,2,2,2,1,"48168","40","female","woman","","caucasian","","No","N/A",""
"47","6547e851a5ff72124cb9fb1d","svTrial","survey",56,1680651,"0.0-2.0-54.0","65553732575bb29198a888d7","655657f33471b6b4fca45043",6,"18126","Okinawa_middle_sch_4_3.jpg",NA,NA,NA,NA,NA,NA,NA,NA,NA,NA,NA,NA,NA,NA,NA,NA,"[]","small",1,"pos",4,47,1,2,3,1,2,1,"48168","40","female","woman","","caucasian","","No","N/A",""
"48","6547e851a5ff72124cb9fb1d","svTrial","survey",57,1705475,"0.0-2.0-55.0","65553732575bb29198a888d7","655657f33471b6b4fca45043",6,"24814","Toyama_large_sch_10_2.jpg",NA,NA,NA,NA,NA,NA,NA,NA,NA,NA,NA,NA,NA,NA,NA,NA,"[]","large",2,"pos",10,48,2,3,3,3,2,1,"48168","40","female","woman","","caucasian","","No","N/A",""
