"","subject_id","task","trial_type","trial_index","time_elapsed","internal_node_id","study_id","session_id","group","rt","stimulus","width","height","webaudio","browser","browser_version","mobile","os","fullscreen","vsync_rate","webcam","microphone","success","timeout","failed_images","failed_audio","failed_video","accuracy","size","culture","loct","number","document.id","ambiguous","objects","invisible","chaos","complex","passedChecks","zipcode","age","sex","gender","gender-self-describe","ethnicity","ethnicity-self-describe","outsideUS","outsideUS_years","surveyComments"
"1","654f973ac78b3016588a8f1e","svTrial","survey",8,193683,"0.0-2.0-6.0","65553732575bb29198a888d7","655658062898e647ea3b9bf5",2,"75459","Toyama_small_pos_4_3.jpg",NA,NA,NA,NA,NA,NA,NA,NA,NA,NA,NA,NA,NA,NA,NA,NA,"[]","small",2,"sch",4,1,4,3,2,3,2,1,"10466","45","female","woman","","caucasian","","No","",""
"2","654f973ac78b3016588a8f1e","svTrial","survey",9,245161,"0.0-2.0-7.0","65553732575bb29198a888d7","655658062898e647ea3b9bf5",2,"51460","Kanagawa_small_pos_2_0.jpg",NA,NA,NA,NA,NA,NA,NA,NA,NA,NA,NA,NA,NA,NA,NA,NA,"[]","small",1,"sch",2,2,4,4,4,4,3,1,"10466","45","female","woman","","caucasian","","No","",""
"3","654f973ac78b3016588a8f1e","svTrial","survey",10,288831,"0.0-2.0-8.0","65553732575bb29198a888d7","655658062898e647ea3b9bf5",2,"43652","Toyama_small_sch_4_2.jpg",NA,NA,NA,NA,NA,NA,NA,NA,NA,NA,NA,NA,NA,NA,NA,NA,"[]","middle",2,"sch",4,3,5,3,5,3,4,1,"10466","45","female","woman","","caucasian","","No","",""
"4","654f973ac78b3016588a8f1e","svTrial","survey",11,334300,"0.0-2.0-9.0","65553732575bb29198a888d7","655658062898e647ea3b9bf5",2,"45449","Kanagawa_large_sch_6_0.jpg",NA,NA,NA,NA,NA,NA,NA,NA,NA,NA,NA,NA,NA,NA,NA,NA,"[]","middle",1,"pos",6,4,5,2,3,4,3,1,"10466","45","female","woman","","caucasian","","No","",""
"5","654f973ac78b3016588a8f1e","svTrial","survey",12,369494,"0.0-2.0-10.0","65553732575bb29198a888d7","655658062898e647ea3b9bf5",2,"35172","Kanagawa_large_pos_5_3.jpg",NA,NA,NA,NA,NA,NA,NA,NA,NA,NA,NA,NA,NA,NA,NA,NA,"[]","small",1,"sch",5,5,3,4,4,3,3,1,"10466","45","female","woman","","caucasian","","No","",""
"6","654f973ac78b3016588a8f1e","svTrial","survey",13,394579,"0.0-2.0-11.0","65553732575bb29198a888d7","655658062898e647ea3b9bf5",2,"25062","Hokkaido_middle_sch_5_1.jpg",NA,NA,NA,NA,NA,NA,NA,NA,NA,NA,NA,NA,NA,NA,NA,NA,"[]","small",1,"pos",5,6,5,4,5,4,4,1,"10466","45","female","woman","","caucasian","","No","",""
"7","654f973ac78b3016588a8f1e","svTrial","survey",14,419447,"0.0-2.0-12.0","65553732575bb29198a888d7","655658062898e647ea3b9bf5",2,"24851","Hokkaido_middle_sch_3_3.jpg",NA,NA,NA,NA,NA,NA,NA,NA,NA,NA,NA,NA,NA,NA,NA,NA,"[]","middle",1,"sch",3,7,5,4,5,5,5,1,"10466","45","female","woman","","caucasian","","No","",""
"8","654f973ac78b3016588a8f1e","svTrial","survey",15,453859,"0.0-2.0-13.0","65553732575bb29198a888d7","655658062898e647ea3b9bf5",2,"34399","Toyama_middle_pos_5_0.jpg",NA,NA,NA,NA,NA,NA,NA,NA,NA,NA,NA,NA,NA,NA,NA,NA,"[]","large",2,"sch",5,8,4,3,5,4,4,1,"10466","45","female","woman","","caucasian","","No","",""
"9","654f973ac78b3016588a8f1e","svTrial","survey",16,480097,"0.0-2.0-14.0","65553732575bb29198a888d7","655658062898e647ea3b9bf5",2,"26217","Akita_large_sch_3_3.jpg",NA,NA,NA,NA,NA,NA,NA,NA,NA,NA,NA,NA,NA,NA,NA,NA,"[]","small",2,"sch",3,9,3,3,3,3,3,1,"10466","45","female","woman","","caucasian","","No","",""
"10","654f973ac78b3016588a8f1e","svTrial","survey",17,507198,"0.0-2.0-15.0","65553732575bb29198a888d7","655658062898e647ea3b9bf5",2,"27081","Kanagawa_large_sch_4_2.jpg",NA,NA,NA,NA,NA,NA,NA,NA,NA,NA,NA,NA,NA,NA,NA,NA,"[]","middle",1,"sch",4,10,5,3,4,4,3,1,"10466","45","female","woman","","caucasian","","No","",""
"11","654f973ac78b3016588a8f1e","svTrial","survey",18,525144,"0.0-2.0-16.0","65553732575bb29198a888d7","655658062898e647ea3b9bf5",2,"17931","Niigata_middle_pos_8_1.jpg",NA,NA,NA,NA,NA,NA,NA,NA,NA,NA,NA,NA,NA,NA,NA,NA,"[]","middle",2,"pos",8,11,5,5,5,5,5,1,"10466","45","female","woman","","caucasian","","No","",""
"12","654f973ac78b3016588a8f1e","svTrial","survey",19,553053,"0.0-2.0-17.0","65553732575bb29198a888d7","655658062898e647ea3b9bf5",2,"27895","Toyama_large_sch_12_3.jpg",NA,NA,NA,NA,NA,NA,NA,NA,NA,NA,NA,NA,NA,NA,NA,NA,"[]","small",2,"pos",12,12,4,4,4,4,4,1,"10466","45","female","woman","","caucasian","","No","",""
"13","654f973ac78b3016588a8f1e","svTrial","survey",20,577674,"0.0-2.0-18.0","65553732575bb29198a888d7","655658062898e647ea3b9bf5",2,"24601","Okinawa_large_pos_4_1.jpg",NA,NA,NA,NA,NA,NA,NA,NA,NA,NA,NA,NA,NA,NA,NA,NA,"[]","large",1,"sch",4,13,5,5,5,5,4,1,"10466","45","female","woman","","caucasian","","No","",""
"14","654f973ac78b3016588a8f1e","svTrial","survey",21,614803,"0.0-2.0-19.0","65553732575bb29198a888d7","655658062898e647ea3b9bf5",2,"37111","Tokyo_middle_sch_8_2.jpg",NA,NA,NA,NA,NA,NA,NA,NA,NA,NA,NA,NA,NA,NA,NA,NA,"[]","small",1,"sch",8,14,4,3,4,2,2,1,"10466","45","female","woman","","caucasian","","No","",""
"15","654f973ac78b3016588a8f1e","svTrial","survey",22,636235,"0.0-2.0-20.0","65553732575bb29198a888d7","655658062898e647ea3b9bf5",2,"21413","Akita_large_pos_8_1.jpg",NA,NA,NA,NA,NA,NA,NA,NA,NA,NA,NA,NA,NA,NA,NA,NA,"[]","middle",2,"pos",8,15,5,4,5,4,4,1,"10466","45","female","woman","","caucasian","","No","",""
"16","654f973ac78b3016588a8f1e","svTrial","survey",23,658788,"0.0-2.0-21.0","65553732575bb29198a888d7","655658062898e647ea3b9bf5",2,"22536","Kanagawa_middle_sch_3_2.jpg",NA,NA,NA,NA,NA,NA,NA,NA,NA,NA,NA,NA,NA,NA,NA,NA,"[]","large",1,"sch",3,16,5,4,5,5,4,1,"10466","45","female","woman","","caucasian","","No","",""
"17","654f973ac78b3016588a8f1e","svTrial","survey",24,684605,"0.0-2.0-22.0","65553732575bb29198a888d7","655658062898e647ea3b9bf5",2,"25799","Okinawa_large_sch_9_2.jpg",NA,NA,NA,NA,NA,NA,NA,NA,NA,NA,NA,NA,NA,NA,NA,NA,"[]","small",1,"sch",9,17,5,3,4,3,3,1,"10466","45","female","woman","","caucasian","","No","",""
"18","654f973ac78b3016588a8f1e","svTrial","survey",25,712644,"0.0-2.0-23.0","65553732575bb29198a888d7","655658062898e647ea3b9bf5",2,"28023","Hokkaido_large_pos_12_1.jpg",NA,NA,NA,NA,NA,NA,NA,NA,NA,NA,NA,NA,NA,NA,NA,NA,"[]","middle",1,"sch",12,18,4,3,3,3,3,1,"10466","45","female","woman","","caucasian","","No","",""
"19","654f973ac78b3016588a8f1e","svTrial","survey",26,742920,"0.0-2.0-24.0","65553732575bb29198a888d7","655658062898e647ea3b9bf5",2,"30261","Kanagawa_small_pos_3_3.jpg",NA,NA,NA,NA,NA,NA,NA,NA,NA,NA,NA,NA,NA,NA,NA,NA,"[]","large",1,"sch",3,19,3,3,2,2,3,1,"10466","45","female","woman","","caucasian","","No","",""
"20","654f973ac78b3016588a8f1e","svTrial","survey",27,785771,"0.0-2.0-25.0","65553732575bb29198a888d7","655658062898e647ea3b9bf5",2,"42831","Ishikawa_large_sch_1_3.jpg",NA,NA,NA,NA,NA,NA,NA,NA,NA,NA,NA,NA,NA,NA,NA,NA,"[]","middle",2,"sch",1,20,4,2,3,4,3,1,"10466","45","female","woman","","caucasian","","No","",""
"21","654f973ac78b3016588a8f1e","svTrial","survey",28,820548,"0.0-2.0-26.0","65553732575bb29198a888d7","655658062898e647ea3b9bf5",2,"34758","Ishikawa_large_sch_5_0.jpg",NA,NA,NA,NA,NA,NA,NA,NA,NA,NA,NA,NA,NA,NA,NA,NA,"[]","large",2,"sch",5,21,1,2,1,1,1,1,"10466","45","female","woman","","caucasian","","No","",""
"22","654f973ac78b3016588a8f1e","svTrial","survey",29,851006,"0.0-2.0-27.0","65553732575bb29198a888d7","655658062898e647ea3b9bf5",2,"30437","Hokkaido_small_sch_4_1.jpg",NA,NA,NA,NA,NA,NA,NA,NA,NA,NA,NA,NA,NA,NA,NA,NA,"[]","small",1,"pos",4,22,4,2,4,3,3,1,"10466","45","female","woman","","caucasian","","No","",""
"23","654f973ac78b3016588a8f1e","svTrial","survey",30,884897,"0.0-2.0-28.0","65553732575bb29198a888d7","655658062898e647ea3b9bf5",2,"33875","Niigata_large_sch_4_3.jpg",NA,NA,NA,NA,NA,NA,NA,NA,NA,NA,NA,NA,NA,NA,NA,NA,"[]","small",2,"sch",4,23,4,3,3,4,3,1,"10466","45","female","woman","","caucasian","","No","",""
"24","654f973ac78b3016588a8f1e","svTrial","survey",31,922561,"0.0-2.0-29.0","65553732575bb29198a888d7","655658062898e647ea3b9bf5",2,"37643","Okinawa_small_pos_2_3.jpg",NA,NA,NA,NA,NA,NA,NA,NA,NA,NA,NA,NA,NA,NA,NA,NA,"[]","large",1,"pos",2,24,4,4,4,4,4,1,"10466","45","female","woman","","caucasian","","No","",""
"25","654f973ac78b3016588a8f1e","svTrial","survey",33,958572,"0.0-2.0-31.0","65553732575bb29198a888d7","655658062898e647ea3b9bf5",2,"25185","Toyama_large_sch_1_1.jpg",NA,NA,NA,NA,NA,NA,NA,NA,NA,NA,NA,NA,NA,NA,NA,NA,"[]","middle",2,"sch",1,25,4,3,4,3,3,1,"10466","45","female","woman","","caucasian","","No","",""
"26","654f973ac78b3016588a8f1e","svTrial","survey",34,987029,"0.0-2.0-32.0","65553732575bb29198a888d7","655658062898e647ea3b9bf5",2,"28438","Akita_large_pos_6_0.jpg",NA,NA,NA,NA,NA,NA,NA,NA,NA,NA,NA,NA,NA,NA,NA,NA,"[]","large",2,"sch",6,26,4,4,4,3,3,1,"10466","45","female","woman","","caucasian","","No","",""
"27","654f973ac78b3016588a8f1e","svTrial","survey",35,1016783,"0.0-2.0-33.0","65553732575bb29198a888d7","655658062898e647ea3b9bf5",2,"29737","Kanagawa_large_sch_7_3.jpg",NA,NA,NA,NA,NA,NA,NA,NA,NA,NA,NA,NA,NA,NA,NA,NA,"[]","middle",1,"pos",7,27,3,3,3,2,3,1,"10466","45","female","woman","","caucasian","","No","",""
"28","654f973ac78b3016588a8f1e","svTrial","survey",36,1039750,"0.0-2.0-34.0","65553732575bb29198a888d7","655658062898e647ea3b9bf5",2,"22953","Hokkaido_large_sch_6_3.jpg",NA,NA,NA,NA,NA,NA,NA,NA,NA,NA,NA,NA,NA,NA,NA,NA,"[]","small",1,"pos",6,28,4,4,4,3,3,1,"10466","45","female","woman","","caucasian","","No","",""
"29","654f973ac78b3016588a8f1e","svTrial","survey",37,1064825,"0.0-2.0-35.0","65553732575bb29198a888d7","655658062898e647ea3b9bf5",2,"25059","Niigata_large_sch_8_2.jpg",NA,NA,NA,NA,NA,NA,NA,NA,NA,NA,NA,NA,NA,NA,NA,NA,"[]","middle",2,"sch",8,29,4,3,3,3,3,1,"10466","45","female","woman","","caucasian","","No","",""
"30","654f973ac78b3016588a8f1e","svTrial","survey",38,1089577,"0.0-2.0-36.0","65553732575bb29198a888d7","655658062898e647ea3b9bf5",2,"24739","Tokyo_large_pos_5_1.jpg",NA,NA,NA,NA,NA,NA,NA,NA,NA,NA,NA,NA,NA,NA,NA,NA,"[]","middle",1,"pos",5,30,3,3,3,4,4,1,"10466","45","female","woman","","caucasian","","No","",""
"31","654f973ac78b3016588a8f1e","svTrial","survey",39,1118576,"0.0-2.0-37.0","65553732575bb29198a888d7","655658062898e647ea3b9bf5",2,"28970","Kanagawa_large_sch_3_0.jpg",NA,NA,NA,NA,NA,NA,NA,NA,NA,NA,NA,NA,NA,NA,NA,NA,"[]","small",1,"pos",3,31,5,4,4,4,4,1,"10466","45","female","woman","","caucasian","","No","",""
"32","654f973ac78b3016588a8f1e","svTrial","survey",40,1150460,"0.0-2.0-38.0","65553732575bb29198a888d7","655658062898e647ea3b9bf5",2,"31857","Toyama_middle_pos_2_1.jpg",NA,NA,NA,NA,NA,NA,NA,NA,NA,NA,NA,NA,NA,NA,NA,NA,"[]","middle",2,"pos",2,32,1,2,2,3,2,1,"10466","45","female","woman","","caucasian","","No","",""
"33","654f973ac78b3016588a8f1e","svTrial","survey",41,1176716,"0.0-2.0-39.0","65553732575bb29198a888d7","655658062898e647ea3b9bf5",2,"26236","Okinawa_large_sch_3_0.jpg",NA,NA,NA,NA,NA,NA,NA,NA,NA,NA,NA,NA,NA,NA,NA,NA,"[]","large",1,"pos",3,33,4,2,1,3,2,1,"10466","45","female","woman","","caucasian","","No","",""
"34","654f973ac78b3016588a8f1e","svTrial","survey",42,1219639,"0.0-2.0-40.0","65553732575bb29198a888d7","655658062898e647ea3b9bf5",2,"42907","Tokyo_large_pos_6_3.jpg",NA,NA,NA,NA,NA,NA,NA,NA,NA,NA,NA,NA,NA,NA,NA,NA,"[]","middle",1,"pos",6,34,3,2,3,3,2,1,"10466","45","female","woman","","caucasian","","No","",""
"35","654f973ac78b3016588a8f1e","svTrial","survey",43,1247182,"0.0-2.0-41.0","65553732575bb29198a888d7","655658062898e647ea3b9bf5",2,"27529","Akita_middle_sch_7_1.jpg",NA,NA,NA,NA,NA,NA,NA,NA,NA,NA,NA,NA,NA,NA,NA,NA,"[]","large",2,"sch",7,35,4,3,2,3,2,1,"10466","45","female","woman","","caucasian","","No","",""
"36","654f973ac78b3016588a8f1e","svTrial","survey",44,1277825,"0.0-2.0-42.0","65553732575bb29198a888d7","655658062898e647ea3b9bf5",2,"30624","Okinawa_large_sch_1_3.jpg",NA,NA,NA,NA,NA,NA,NA,NA,NA,NA,NA,NA,NA,NA,NA,NA,"[]","middle",1,"pos",1,36,3,4,3,4,4,1,"10466","45","female","woman","","caucasian","","No","",""
"37","654f973ac78b3016588a8f1e","svTrial","survey",45,1303379,"0.0-2.0-43.0","65553732575bb29198a888d7","655658062898e647ea3b9bf5",2,"25539","Niigata_middle_sch_5_1.jpg",NA,NA,NA,NA,NA,NA,NA,NA,NA,NA,NA,NA,NA,NA,NA,NA,"[]","small",2,"pos",5,37,4,2,3,2,2,1,"10466","45","female","woman","","caucasian","","No","",""
"38","654f973ac78b3016588a8f1e","svTrial","survey",47,1351916,"0.0-2.0-45.0","65553732575bb29198a888d7","655658062898e647ea3b9bf5",2,"32704","Toyama_large_sch_5_2.jpg",NA,NA,NA,NA,NA,NA,NA,NA,NA,NA,NA,NA,NA,NA,NA,NA,"[]","large",2,"sch",5,38,3,3,3,3,3,1,"10466","45","female","woman","","caucasian","","No","",""
"39","654f973ac78b3016588a8f1e","svTrial","survey",48,1374081,"0.0-2.0-46.0","65553732575bb29198a888d7","655658062898e647ea3b9bf5",2,"22147","Toyama_small_sch_2_3.jpg",NA,NA,NA,NA,NA,NA,NA,NA,NA,NA,NA,NA,NA,NA,NA,NA,"[]","large",2,"pos",2,39,3,3,3,2,2,1,"10466","45","female","woman","","caucasian","","No","",""
"40","654f973ac78b3016588a8f1e","svTrial","survey",49,1402335,"0.0-2.0-47.0","65553732575bb29198a888d7","655658062898e647ea3b9bf5",2,"28239","Toyama_middle_pos_7_0.jpg",NA,NA,NA,NA,NA,NA,NA,NA,NA,NA,NA,NA,NA,NA,NA,NA,"[]","large",2,"sch",7,40,2,2,1,3,2,1,"10466","45","female","woman","","caucasian","","No","",""
"41","654f973ac78b3016588a8f1e","svTrial","survey",50,1432244,"0.0-2.0-48.0","65553732575bb29198a888d7","655658062898e647ea3b9bf5",2,"29895","Akita_middle_sch_2_2.jpg",NA,NA,NA,NA,NA,NA,NA,NA,NA,NA,NA,NA,NA,NA,NA,NA,"[]","middle",2,"sch",2,41,3,1,3,2,1,1,"10466","45","female","woman","","caucasian","","No","",""
"42","654f973ac78b3016588a8f1e","svTrial","survey",51,1507556,"0.0-2.0-49.0","65553732575bb29198a888d7","655658062898e647ea3b9bf5",2,"75293","Tokyo_small_sch_3_0.jpg",NA,NA,NA,NA,NA,NA,NA,NA,NA,NA,NA,NA,NA,NA,NA,NA,"[]","small",1,"sch",3,42,4,3,3,4,4,1,"10466","45","female","woman","","caucasian","","No","",""
"43","654f973ac78b3016588a8f1e","svTrial","survey",52,1520862,"0.0-2.0-50.0","65553732575bb29198a888d7","655658062898e647ea3b9bf5",2,"13286","Niigata_large_pos_8_0.jpg",NA,NA,NA,NA,NA,NA,NA,NA,NA,NA,NA,NA,NA,NA,NA,NA,"[]","middle",2,"pos",8,43,4,2,4,3,3,1,"10466","45","female","woman","","caucasian","","No","",""
"44","654f973ac78b3016588a8f1e","svTrial","survey",53,1534689,"0.0-2.0-51.0","65553732575bb29198a888d7","655658062898e647ea3b9bf5",2,"13811","Okinawa_middle_sch_2_1.jpg",NA,NA,NA,NA,NA,NA,NA,NA,NA,NA,NA,NA,NA,NA,NA,NA,"[]","small",1,"sch",2,44,5,4,4,4,4,1,"10466","45","female","woman","","caucasian","","No","",""
"45","654f973ac78b3016588a8f1e","svTrial","survey",54,1554175,"0.0-2.0-52.0","65553732575bb29198a888d7","655658062898e647ea3b9bf5",2,"19472","Niigata_large_pos_6_3.jpg",NA,NA,NA,NA,NA,NA,NA,NA,NA,NA,NA,NA,NA,NA,NA,NA,"[]","large",2,"sch",6,45,5,4,5,4,4,1,"10466","45","female","woman","","caucasian","","No","",""
"46","654f973ac78b3016588a8f1e","svTrial","survey",55,1574291,"0.0-2.0-53.0","65553732575bb29198a888d7","655658062898e647ea3b9bf5",2,"20098","Toyama_large_pos_3_0.jpg",NA,NA,NA,NA,NA,NA,NA,NA,NA,NA,NA,NA,NA,NA,NA,NA,"[]","middle",2,"pos",3,46,3,2,3,3,2,1,"10466","45","female","woman","","caucasian","","No","",""
"47","654f973ac78b3016588a8f1e","svTrial","survey",56,1587248,"0.0-2.0-54.0","65553732575bb29198a888d7","655658062898e647ea3b9bf5",2,"12941","Okinawa_large_sch_8_2.jpg",NA,NA,NA,NA,NA,NA,NA,NA,NA,NA,NA,NA,NA,NA,NA,NA,"[]","middle",1,"sch",8,47,4,3,4,4,4,1,"10466","45","female","woman","","caucasian","","No","",""
"48","654f973ac78b3016588a8f1e","svTrial","survey",57,1605199,"0.0-2.0-55.0","65553732575bb29198a888d7","655658062898e647ea3b9bf5",2,"17937","Toyama_middle_pos_4_3.jpg",NA,NA,NA,NA,NA,NA,NA,NA,NA,NA,NA,NA,NA,NA,NA,NA,"[]","large",2,"sch",4,48,3,3,3,2,2,1,"10466","45","female","woman","","caucasian","","No","",""
