"","path","subject_id","task","trial_type","trial_index","time_elapsed","internal_node_id","study_id","session_id","group","rt","stimulus","width","height","webaudio","browser","browser_version","mobile","os","fullscreen","vsync_rate","webcam","microphone","success","timeout","failed_images","failed_audio","failed_video","accuracy","size","culture","loct","number","document.id","ambiguous","objects","invisible","chaos","complex","passedChecks","zipcode","age","sex","gender","gender-self-describe","ethnicity","ethnicity-self-describe","outsideUS","outsideUS_years","surveyComments"
"1","/Users/npcamp/GitHub/perceptual-affordance-Lee_Thesis/data/perceptual-affordance-Lee_Thesis_c-undefined_p-5588d532fdf99b304ee567b9_s-65565c33d1570099995f3126_SESSION_2023-11-16_13h13.17.180.csv","5588d532fdf99b304ee567b9","svTrial","survey",8,817140,"0.0-2.0-6.0","65553732575bb29198a888d7","65565c33d1570099995f3126",2,"29830","Okinawa_large_sch_1_0.jpg",NA,NA,NA,NA,NA,NA,NA,NA,NA,NA,NA,NA,NA,NA,NA,NA,"[]","middle",1,"pos",1,1,2,4,2,1,3,1,"38751","34","male","man","","caucasian","","No","",""
"2","/Users/npcamp/GitHub/perceptual-affordance-Lee_Thesis/data/perceptual-affordance-Lee_Thesis_c-undefined_p-5588d532fdf99b304ee567b9_s-65565c33d1570099995f3126_SESSION_2023-11-16_13h13.17.180.csv","5588d532fdf99b304ee567b9","svTrial","survey",9,834924,"0.0-2.0-7.0","65553732575bb29198a888d7","65565c33d1570099995f3126",2,"17768","Toyama_large_sch_1_3.jpg",NA,NA,NA,NA,NA,NA,NA,NA,NA,NA,NA,NA,NA,NA,NA,NA,"[]","middle",2,"sch",1,2,4,3,3,3,3,1,"38751","34","male","man","","caucasian","","No","",""
"3","/Users/npcamp/GitHub/perceptual-affordance-Lee_Thesis/data/perceptual-affordance-Lee_Thesis_c-undefined_p-5588d532fdf99b304ee567b9_s-65565c33d1570099995f3126_SESSION_2023-11-16_13h13.17.180.csv","5588d532fdf99b304ee567b9","svTrial","survey",10,852381,"0.0-2.0-8.0","65553732575bb29198a888d7","65565c33d1570099995f3126",2,"17448","Toyama_large_pos_3_2.jpg",NA,NA,NA,NA,NA,NA,NA,NA,NA,NA,NA,NA,NA,NA,NA,NA,"[]","middle",2,"pos",3,3,4,2,4,3,3,1,"38751","34","male","man","","caucasian","","No","",""
"4","/Users/npcamp/GitHub/perceptual-affordance-Lee_Thesis/data/perceptual-affordance-Lee_Thesis_c-undefined_p-5588d532fdf99b304ee567b9_s-65565c33d1570099995f3126_SESSION_2023-11-16_13h13.17.180.csv","5588d532fdf99b304ee567b9","svTrial","survey",11,868908,"0.0-2.0-9.0","65553732575bb29198a888d7","65565c33d1570099995f3126",2,"16518","Toyama_small_sch_2_1.jpg",NA,NA,NA,NA,NA,NA,NA,NA,NA,NA,NA,NA,NA,NA,NA,NA,"[]","large",2,"pos",2,4,5,3,4,2,2,1,"38751","34","male","man","","caucasian","","No","",""
"5","/Users/npcamp/GitHub/perceptual-affordance-Lee_Thesis/data/perceptual-affordance-Lee_Thesis_c-undefined_p-5588d532fdf99b304ee567b9_s-65565c33d1570099995f3126_SESSION_2023-11-16_13h13.17.180.csv","5588d532fdf99b304ee567b9","svTrial","survey",12,1024620,"0.0-2.0-10.0","65553732575bb29198a888d7","65565c33d1570099995f3126",2,"155702","Niigata_large_sch_4_3.jpg",NA,NA,NA,NA,NA,NA,NA,NA,NA,NA,NA,NA,NA,NA,NA,NA,"[]","small",2,"sch",4,5,3,4,3,4,4,1,"38751","34","male","man","","caucasian","","No","",""
"6","/Users/npcamp/GitHub/perceptual-affordance-Lee_Thesis/data/perceptual-affordance-Lee_Thesis_c-undefined_p-5588d532fdf99b304ee567b9_s-65565c33d1570099995f3126_SESSION_2023-11-16_13h13.17.180.csv","5588d532fdf99b304ee567b9","svTrial","survey",13,1051701,"0.0-2.0-11.0","65553732575bb29198a888d7","65565c33d1570099995f3126",2,"27069","Ishikawa_large_sch_5_3.jpg",NA,NA,NA,NA,NA,NA,NA,NA,NA,NA,NA,NA,NA,NA,NA,NA,"[]","large",2,"sch",5,6,3,3,3,2,2,1,"38751","34","male","man","","caucasian","","No","",""
"7","/Users/npcamp/GitHub/perceptual-affordance-Lee_Thesis/data/perceptual-affordance-Lee_Thesis_c-undefined_p-5588d532fdf99b304ee567b9_s-65565c33d1570099995f3126_SESSION_2023-11-16_13h13.17.180.csv","5588d532fdf99b304ee567b9","svTrial","survey",14,1095734,"0.0-2.0-12.0","65553732575bb29198a888d7","65565c33d1570099995f3126",2,"44023","Niigata_middle_pos_8_3.jpg",NA,NA,NA,NA,NA,NA,NA,NA,NA,NA,NA,NA,NA,NA,NA,NA,"[]","middle",2,"pos",8,7,4,5,3,4,4,1,"38751","34","male","man","","caucasian","","No","",""
"8","/Users/npcamp/GitHub/perceptual-affordance-Lee_Thesis/data/perceptual-affordance-Lee_Thesis_c-undefined_p-5588d532fdf99b304ee567b9_s-65565c33d1570099995f3126_SESSION_2023-11-16_13h13.17.180.csv","5588d532fdf99b304ee567b9","svTrial","survey",15,1109961,"0.0-2.0-13.0","65553732575bb29198a888d7","65565c33d1570099995f3126",2,"14218","Akita_middle_sch_7_1.jpg",NA,NA,NA,NA,NA,NA,NA,NA,NA,NA,NA,NA,NA,NA,NA,NA,"[]","large",2,"sch",7,8,3,3,2,2,2,1,"38751","34","male","man","","caucasian","","No","",""
"9","/Users/npcamp/GitHub/perceptual-affordance-Lee_Thesis/data/perceptual-affordance-Lee_Thesis_c-undefined_p-5588d532fdf99b304ee567b9_s-65565c33d1570099995f3126_SESSION_2023-11-16_13h13.17.180.csv","5588d532fdf99b304ee567b9","svTrial","survey",16,1127786,"0.0-2.0-14.0","65553732575bb29198a888d7","65565c33d1570099995f3126",2,"17813","Kanagawa_large_sch_4_3.jpg",NA,NA,NA,NA,NA,NA,NA,NA,NA,NA,NA,NA,NA,NA,NA,NA,"[]","middle",1,"sch",4,9,5,4,3,2,3,1,"38751","34","male","man","","caucasian","","No","",""
"10","/Users/npcamp/GitHub/perceptual-affordance-Lee_Thesis/data/perceptual-affordance-Lee_Thesis_c-undefined_p-5588d532fdf99b304ee567b9_s-65565c33d1570099995f3126_SESSION_2023-11-16_13h13.17.180.csv","5588d532fdf99b304ee567b9","svTrial","survey",17,1147225,"0.0-2.0-15.0","65553732575bb29198a888d7","65565c33d1570099995f3126",2,"19430","Hokkaido_middle_sch_5_0.jpg",NA,NA,NA,NA,NA,NA,NA,NA,NA,NA,NA,NA,NA,NA,NA,NA,"[]","small",1,"pos",5,10,2,3,2,2,2,1,"38751","34","male","man","","caucasian","","No","",""
"11","/Users/npcamp/GitHub/perceptual-affordance-Lee_Thesis/data/perceptual-affordance-Lee_Thesis_c-undefined_p-5588d532fdf99b304ee567b9_s-65565c33d1570099995f3126_SESSION_2023-11-16_13h13.17.180.csv","5588d532fdf99b304ee567b9","svTrial","survey",18,1163979,"0.0-2.0-16.0","65553732575bb29198a888d7","65565c33d1570099995f3126",2,"16746","Kanagawa_large_sch_6_3.jpg",NA,NA,NA,NA,NA,NA,NA,NA,NA,NA,NA,NA,NA,NA,NA,NA,"[]","middle",1,"pos",6,11,2,2,2,2,2,1,"38751","34","male","man","","caucasian","","No","",""
"12","/Users/npcamp/GitHub/perceptual-affordance-Lee_Thesis/data/perceptual-affordance-Lee_Thesis_c-undefined_p-5588d532fdf99b304ee567b9_s-65565c33d1570099995f3126_SESSION_2023-11-16_13h13.17.180.csv","5588d532fdf99b304ee567b9","svTrial","survey",19,1180987,"0.0-2.0-17.0","65553732575bb29198a888d7","65565c33d1570099995f3126",2,"16999","Tokyo_large_pos_5_3.jpg",NA,NA,NA,NA,NA,NA,NA,NA,NA,NA,NA,NA,NA,NA,NA,NA,"[]","middle",1,"pos",5,12,2,3,2,2,2,1,"38751","34","male","man","","caucasian","","No","",""
"13","/Users/npcamp/GitHub/perceptual-affordance-Lee_Thesis/data/perceptual-affordance-Lee_Thesis_c-undefined_p-5588d532fdf99b304ee567b9_s-65565c33d1570099995f3126_SESSION_2023-11-16_13h13.17.180.csv","5588d532fdf99b304ee567b9","svTrial","survey",20,1199960,"0.0-2.0-18.0","65553732575bb29198a888d7","65565c33d1570099995f3126",2,"18963","Niigata_middle_sch_5_1.jpg",NA,NA,NA,NA,NA,NA,NA,NA,NA,NA,NA,NA,NA,NA,NA,NA,"[]","small",2,"pos",5,13,4,3,3,3,3,1,"38751","34","male","man","","caucasian","","No","",""
"14","/Users/npcamp/GitHub/perceptual-affordance-Lee_Thesis/data/perceptual-affordance-Lee_Thesis_c-undefined_p-5588d532fdf99b304ee567b9_s-65565c33d1570099995f3126_SESSION_2023-11-16_13h13.17.180.csv","5588d532fdf99b304ee567b9","svTrial","survey",21,1213277,"0.0-2.0-19.0","65553732575bb29198a888d7","65565c33d1570099995f3126",2,"13306","Okinawa_large_pos_4_0.jpg",NA,NA,NA,NA,NA,NA,NA,NA,NA,NA,NA,NA,NA,NA,NA,NA,"[]","large",1,"sch",4,14,2,3,2,2,3,1,"38751","34","male","man","","caucasian","","No","",""
"15","/Users/npcamp/GitHub/perceptual-affordance-Lee_Thesis/data/perceptual-affordance-Lee_Thesis_c-undefined_p-5588d532fdf99b304ee567b9_s-65565c33d1570099995f3126_SESSION_2023-11-16_13h13.17.180.csv","5588d532fdf99b304ee567b9","svTrial","survey",22,1225723,"0.0-2.0-20.0","65553732575bb29198a888d7","65565c33d1570099995f3126",2,"12425","Ishikawa_large_sch_1_1.jpg",NA,NA,NA,NA,NA,NA,NA,NA,NA,NA,NA,NA,NA,NA,NA,NA,"[]","middle",2,"sch",1,15,2,2,2,2,3,1,"38751","34","male","man","","caucasian","","No","",""
"16","/Users/npcamp/GitHub/perceptual-affordance-Lee_Thesis/data/perceptual-affordance-Lee_Thesis_c-undefined_p-5588d532fdf99b304ee567b9_s-65565c33d1570099995f3126_SESSION_2023-11-16_13h13.17.180.csv","5588d532fdf99b304ee567b9","svTrial","survey",23,1240122,"0.0-2.0-21.0","65553732575bb29198a888d7","65565c33d1570099995f3126",2,"14388","Tokyo_large_pos_6_3.jpg",NA,NA,NA,NA,NA,NA,NA,NA,NA,NA,NA,NA,NA,NA,NA,NA,"[]","middle",1,"pos",6,16,2,1,1,1,1,1,"38751","34","male","man","","caucasian","","No","",""
"17","/Users/npcamp/GitHub/perceptual-affordance-Lee_Thesis/data/perceptual-affordance-Lee_Thesis_c-undefined_p-5588d532fdf99b304ee567b9_s-65565c33d1570099995f3126_SESSION_2023-11-16_13h13.17.180.csv","5588d532fdf99b304ee567b9","svTrial","survey",24,1261727,"0.0-2.0-22.0","65553732575bb29198a888d7","65565c33d1570099995f3126",2,"21595","Akita_middle_sch_2_1.jpg",NA,NA,NA,NA,NA,NA,NA,NA,NA,NA,NA,NA,NA,NA,NA,NA,"[]","middle",2,"sch",2,17,4,3,4,3,2,1,"38751","34","male","man","","caucasian","","No","",""
"18","/Users/npcamp/GitHub/perceptual-affordance-Lee_Thesis/data/perceptual-affordance-Lee_Thesis_c-undefined_p-5588d532fdf99b304ee567b9_s-65565c33d1570099995f3126_SESSION_2023-11-16_13h13.17.180.csv","5588d532fdf99b304ee567b9","svTrial","survey",25,1275315,"0.0-2.0-23.0","65553732575bb29198a888d7","65565c33d1570099995f3126",2,"13567","Toyama_middle_pos_4_0.jpg",NA,NA,NA,NA,NA,NA,NA,NA,NA,NA,NA,NA,NA,NA,NA,NA,"[]","large",2,"sch",4,18,2,1,1,1,1,1,"38751","34","male","man","","caucasian","","No","",""
"19","/Users/npcamp/GitHub/perceptual-affordance-Lee_Thesis/data/perceptual-affordance-Lee_Thesis_c-undefined_p-5588d532fdf99b304ee567b9_s-65565c33d1570099995f3126_SESSION_2023-11-16_13h13.17.180.csv","5588d532fdf99b304ee567b9","svTrial","survey",26,1290005,"0.0-2.0-24.0","65553732575bb29198a888d7","65565c33d1570099995f3126",2,"14665","Niigata_large_pos_6_1.jpg",NA,NA,NA,NA,NA,NA,NA,NA,NA,NA,NA,NA,NA,NA,NA,NA,"[]","large",2,"sch",6,19,2,3,2,3,2,1,"38751","34","male","man","","caucasian","","No","",""
"20","/Users/npcamp/GitHub/perceptual-affordance-Lee_Thesis/data/perceptual-affordance-Lee_Thesis_c-undefined_p-5588d532fdf99b304ee567b9_s-65565c33d1570099995f3126_SESSION_2023-11-16_13h13.17.180.csv","5588d532fdf99b304ee567b9","svTrial","survey",27,1310651,"0.0-2.0-25.0","65553732575bb29198a888d7","65565c33d1570099995f3126",2,"20637","Toyama_middle_pos_2_2.jpg",NA,NA,NA,NA,NA,NA,NA,NA,NA,NA,NA,NA,NA,NA,NA,NA,"[]","middle",2,"pos",2,20,2,2,1,2,2,1,"38751","34","male","man","","caucasian","","No","",""
"21","/Users/npcamp/GitHub/perceptual-affordance-Lee_Thesis/data/perceptual-affordance-Lee_Thesis_c-undefined_p-5588d532fdf99b304ee567b9_s-65565c33d1570099995f3126_SESSION_2023-11-16_13h13.17.180.csv","5588d532fdf99b304ee567b9","svTrial","survey",28,1328759,"0.0-2.0-26.0","65553732575bb29198a888d7","65565c33d1570099995f3126",2,"18100","Akita_large_sch_3_3.jpg",NA,NA,NA,NA,NA,NA,NA,NA,NA,NA,NA,NA,NA,NA,NA,NA,"[]","small",2,"sch",3,21,3,4,3,4,4,1,"38751","34","male","man","","caucasian","","No","",""
"22","/Users/npcamp/GitHub/perceptual-affordance-Lee_Thesis/data/perceptual-affordance-Lee_Thesis_c-undefined_p-5588d532fdf99b304ee567b9_s-65565c33d1570099995f3126_SESSION_2023-11-16_13h13.17.180.csv","5588d532fdf99b304ee567b9","svTrial","survey",29,1341662,"0.0-2.0-27.0","65553732575bb29198a888d7","65565c33d1570099995f3126",2,"12883","Toyama_middle_pos_7_3.jpg",NA,NA,NA,NA,NA,NA,NA,NA,NA,NA,NA,NA,NA,NA,NA,NA,"[]","large",2,"sch",7,22,3,2,2,2,3,1,"38751","34","male","man","","caucasian","","No","",""
"23","/Users/npcamp/GitHub/perceptual-affordance-Lee_Thesis/data/perceptual-affordance-Lee_Thesis_c-undefined_p-5588d532fdf99b304ee567b9_s-65565c33d1570099995f3126_SESSION_2023-11-16_13h13.17.180.csv","5588d532fdf99b304ee567b9","svTrial","survey",31,1363162,"0.0-2.0-29.0","65553732575bb29198a888d7","65565c33d1570099995f3126",2,"16684","Tokyo_small_sch_3_3.jpg",NA,NA,NA,NA,NA,NA,NA,NA,NA,NA,NA,NA,NA,NA,NA,NA,"[]","small",1,"sch",3,23,4,3,4,4,4,1,"38751","34","male","man","","caucasian","","No","",""
"24","/Users/npcamp/GitHub/perceptual-affordance-Lee_Thesis/data/perceptual-affordance-Lee_Thesis_c-undefined_p-5588d532fdf99b304ee567b9_s-65565c33d1570099995f3126_SESSION_2023-11-16_13h13.17.180.csv","5588d532fdf99b304ee567b9","svTrial","survey",32,1376271,"0.0-2.0-30.0","65553732575bb29198a888d7","65565c33d1570099995f3126",2,"13100","Toyama_small_sch_4_0.jpg",NA,NA,NA,NA,NA,NA,NA,NA,NA,NA,NA,NA,NA,NA,NA,NA,"[]","middle",2,"sch",4,24,4,3,4,3,2,1,"38751","34","male","man","","caucasian","","No","",""
"25","/Users/npcamp/GitHub/perceptual-affordance-Lee_Thesis/data/perceptual-affordance-Lee_Thesis_c-undefined_p-5588d532fdf99b304ee567b9_s-65565c33d1570099995f3126_SESSION_2023-11-16_13h13.17.180.csv","5588d532fdf99b304ee567b9","svTrial","survey",34,1473546,"0.0-2.0-32.0","65553732575bb29198a888d7","65565c33d1570099995f3126",2,"81480","Okinawa_large_sch_3_0.jpg",NA,NA,NA,NA,NA,NA,NA,NA,NA,NA,NA,NA,NA,NA,NA,NA,"[]","large",1,"pos",3,25,2,3,4,3,3,1,"38751","34","male","man","","caucasian","","No","",""
"26","/Users/npcamp/GitHub/perceptual-affordance-Lee_Thesis/data/perceptual-affordance-Lee_Thesis_c-undefined_p-5588d532fdf99b304ee567b9_s-65565c33d1570099995f3126_SESSION_2023-11-16_13h13.17.180.csv","5588d532fdf99b304ee567b9","svTrial","survey",35,1748078,"0.0-2.0-33.0","65553732575bb29198a888d7","65565c33d1570099995f3126",2,"274504","Toyama_large_sch_12_3.jpg",NA,NA,NA,NA,NA,NA,NA,NA,NA,NA,NA,NA,NA,NA,NA,NA,"[]","small",2,"pos",12,26,4,4,3,3,3,1,"38751","34","male","man","","caucasian","","No","",""
"27","/Users/npcamp/GitHub/perceptual-affordance-Lee_Thesis/data/perceptual-affordance-Lee_Thesis_c-undefined_p-5588d532fdf99b304ee567b9_s-65565c33d1570099995f3126_SESSION_2023-11-16_13h13.17.180.csv","5588d532fdf99b304ee567b9","svTrial","survey",36,1759419,"0.0-2.0-34.0","65553732575bb29198a888d7","65565c33d1570099995f3126",2,"11331","Akita_large_pos_6_1.jpg",NA,NA,NA,NA,NA,NA,NA,NA,NA,NA,NA,NA,NA,NA,NA,NA,"[]","large",2,"sch",6,27,1,1,1,1,1,1,"38751","34","male","man","","caucasian","","No","",""
"28","/Users/npcamp/GitHub/perceptual-affordance-Lee_Thesis/data/perceptual-affordance-Lee_Thesis_c-undefined_p-5588d532fdf99b304ee567b9_s-65565c33d1570099995f3126_SESSION_2023-11-16_13h13.17.180.csv","5588d532fdf99b304ee567b9","svTrial","survey",37,1769889,"0.0-2.0-35.0","65553732575bb29198a888d7","65565c33d1570099995f3126",2,"10459","Hokkaido_large_pos_12_2.jpg",NA,NA,NA,NA,NA,NA,NA,NA,NA,NA,NA,NA,NA,NA,NA,NA,"[]","middle",1,"sch",12,28,3,3,2,2,2,1,"38751","34","male","man","","caucasian","","No","",""
"29","/Users/npcamp/GitHub/perceptual-affordance-Lee_Thesis/data/perceptual-affordance-Lee_Thesis_c-undefined_p-5588d532fdf99b304ee567b9_s-65565c33d1570099995f3126_SESSION_2023-11-16_13h13.17.180.csv","5588d532fdf99b304ee567b9","svTrial","survey",38,1782981,"0.0-2.0-36.0","65553732575bb29198a888d7","65565c33d1570099995f3126",2,"13084","Okinawa_small_pos_2_2.jpg",NA,NA,NA,NA,NA,NA,NA,NA,NA,NA,NA,NA,NA,NA,NA,NA,"[]","large",1,"pos",2,29,2,3,2,3,3,1,"38751","34","male","man","","caucasian","","No","",""
"30","/Users/npcamp/GitHub/perceptual-affordance-Lee_Thesis/data/perceptual-affordance-Lee_Thesis_c-undefined_p-5588d532fdf99b304ee567b9_s-65565c33d1570099995f3126_SESSION_2023-11-16_13h13.17.180.csv","5588d532fdf99b304ee567b9","svTrial","survey",39,1797361,"0.0-2.0-37.0","65553732575bb29198a888d7","65565c33d1570099995f3126",2,"14370","Hokkaido_small_sch_4_2.jpg",NA,NA,NA,NA,NA,NA,NA,NA,NA,NA,NA,NA,NA,NA,NA,NA,"[]","small",1,"pos",4,30,4,4,3,3,3,1,"38751","34","male","man","","caucasian","","No","",""
"31","/Users/npcamp/GitHub/perceptual-affordance-Lee_Thesis/data/perceptual-affordance-Lee_Thesis_c-undefined_p-5588d532fdf99b304ee567b9_s-65565c33d1570099995f3126_SESSION_2023-11-16_13h13.17.180.csv","5588d532fdf99b304ee567b9","svTrial","survey",40,1811324,"0.0-2.0-38.0","65553732575bb29198a888d7","65565c33d1570099995f3126",2,"13956","Kanagawa_middle_sch_3_2.jpg",NA,NA,NA,NA,NA,NA,NA,NA,NA,NA,NA,NA,NA,NA,NA,NA,"[]","large",1,"sch",3,31,5,3,3,3,4,1,"38751","34","male","man","","caucasian","","No","",""
"32","/Users/npcamp/GitHub/perceptual-affordance-Lee_Thesis/data/perceptual-affordance-Lee_Thesis_c-undefined_p-5588d532fdf99b304ee567b9_s-65565c33d1570099995f3126_SESSION_2023-11-16_13h13.17.180.csv","5588d532fdf99b304ee567b9","svTrial","survey",41,2046622,"0.0-2.0-39.0","65553732575bb29198a888d7","65565c33d1570099995f3126",2,"235289","Kanagawa_large_sch_7_1.jpg",NA,NA,NA,NA,NA,NA,NA,NA,NA,NA,NA,NA,NA,NA,NA,NA,"[]","middle",1,"pos",7,32,4,4,4,3,4,1,"38751","34","male","man","","caucasian","","No","",""
"33","/Users/npcamp/GitHub/perceptual-affordance-Lee_Thesis/data/perceptual-affordance-Lee_Thesis_c-undefined_p-5588d532fdf99b304ee567b9_s-65565c33d1570099995f3126_SESSION_2023-11-16_13h13.17.180.csv","5588d532fdf99b304ee567b9","svTrial","survey",42,2070993,"0.0-2.0-40.0","65553732575bb29198a888d7","65565c33d1570099995f3126",2,"24360","Kanagawa_large_pos_5_3.jpg",NA,NA,NA,NA,NA,NA,NA,NA,NA,NA,NA,NA,NA,NA,NA,NA,"[]","small",1,"sch",5,33,4,3,4,4,3,1,"38751","34","male","man","","caucasian","","No","",""
"34","/Users/npcamp/GitHub/perceptual-affordance-Lee_Thesis/data/perceptual-affordance-Lee_Thesis_c-undefined_p-5588d532fdf99b304ee567b9_s-65565c33d1570099995f3126_SESSION_2023-11-16_13h13.17.180.csv","5588d532fdf99b304ee567b9","svTrial","survey",43,2170092,"0.0-2.0-41.0","65553732575bb29198a888d7","65565c33d1570099995f3126",2,"99090","Hokkaido_middle_sch_3_0.jpg",NA,NA,NA,NA,NA,NA,NA,NA,NA,NA,NA,NA,NA,NA,NA,NA,"[]","middle",1,"sch",3,34,2,3,2,3,2,1,"38751","34","male","man","","caucasian","","No","",""
"35","/Users/npcamp/GitHub/perceptual-affordance-Lee_Thesis/data/perceptual-affordance-Lee_Thesis_c-undefined_p-5588d532fdf99b304ee567b9_s-65565c33d1570099995f3126_SESSION_2023-11-16_13h13.17.180.csv","5588d532fdf99b304ee567b9","svTrial","survey",44,2180342,"0.0-2.0-42.0","65553732575bb29198a888d7","65565c33d1570099995f3126",2,"10240","Tokyo_middle_sch_8_3.jpg",NA,NA,NA,NA,NA,NA,NA,NA,NA,NA,NA,NA,NA,NA,NA,NA,"[]","small",1,"sch",8,35,3,3,2,3,3,1,"38751","34","male","man","","caucasian","","No","",""
"36","/Users/npcamp/GitHub/perceptual-affordance-Lee_Thesis/data/perceptual-affordance-Lee_Thesis_c-undefined_p-5588d532fdf99b304ee567b9_s-65565c33d1570099995f3126_SESSION_2023-11-16_13h13.17.180.csv","5588d532fdf99b304ee567b9","svTrial","survey",45,2304717,"0.0-2.0-43.0","65553732575bb29198a888d7","65565c33d1570099995f3126",2,"124365","Hokkaido_large_sch_6_0.jpg",NA,NA,NA,NA,NA,NA,NA,NA,NA,NA,NA,NA,NA,NA,NA,NA,"[]","small",1,"pos",6,36,4,4,3,4,4,1,"38751","34","male","man","","caucasian","","No","",""
"37","/Users/npcamp/GitHub/perceptual-affordance-Lee_Thesis/data/perceptual-affordance-Lee_Thesis_c-undefined_p-5588d532fdf99b304ee567b9_s-65565c33d1570099995f3126_SESSION_2023-11-16_13h13.17.180.csv","5588d532fdf99b304ee567b9","svTrial","survey",46,2449250,"0.0-2.0-44.0","65553732575bb29198a888d7","65565c33d1570099995f3126",2,"144521","Kanagawa_large_sch_3_3.jpg",NA,NA,NA,NA,NA,NA,NA,NA,NA,NA,NA,NA,NA,NA,NA,NA,"[]","small",1,"pos",3,37,4,3,4,4,4,1,"38751","34","male","man","","caucasian","","No","",""
"38","/Users/npcamp/GitHub/perceptual-affordance-Lee_Thesis/data/perceptual-affordance-Lee_Thesis_c-undefined_p-5588d532fdf99b304ee567b9_s-65565c33d1570099995f3126_SESSION_2023-11-16_13h13.17.180.csv","5588d532fdf99b304ee567b9","svTrial","survey",47,2510849,"0.0-2.0-45.0","65553732575bb29198a888d7","65565c33d1570099995f3126",2,"61589","Toyama_middle_pos_5_3.jpg",NA,NA,NA,NA,NA,NA,NA,NA,NA,NA,NA,NA,NA,NA,NA,NA,"[]","large",2,"sch",5,38,3,3,3,2,2,1,"38751","34","male","man","","caucasian","","No","",""
"39","/Users/npcamp/GitHub/perceptual-affordance-Lee_Thesis/data/perceptual-affordance-Lee_Thesis_c-undefined_p-5588d532fdf99b304ee567b9_s-65565c33d1570099995f3126_SESSION_2023-11-16_13h13.17.180.csv","5588d532fdf99b304ee567b9","svTrial","survey",48,2544612,"0.0-2.0-46.0","65553732575bb29198a888d7","65565c33d1570099995f3126",2,"33734","Toyama_small_pos_4_3.jpg",NA,NA,NA,NA,NA,NA,NA,NA,NA,NA,NA,NA,NA,NA,NA,NA,"[]","small",2,"sch",4,39,3,3,2,2,2,1,"38751","34","male","man","","caucasian","","No","",""
"40","/Users/npcamp/GitHub/perceptual-affordance-Lee_Thesis/data/perceptual-affordance-Lee_Thesis_c-undefined_p-5588d532fdf99b304ee567b9_s-65565c33d1570099995f3126_SESSION_2023-11-16_13h13.17.180.csv","5588d532fdf99b304ee567b9","svTrial","survey",49,2719293,"0.0-2.0-47.0","65553732575bb29198a888d7","65565c33d1570099995f3126",2,"174668","Akita_large_pos_8_2.jpg",NA,NA,NA,NA,NA,NA,NA,NA,NA,NA,NA,NA,NA,NA,NA,NA,"[]","middle",2,"pos",8,40,4,4,3,3,3,1,"38751","34","male","man","","caucasian","","No","",""
"41","/Users/npcamp/GitHub/perceptual-affordance-Lee_Thesis/data/perceptual-affordance-Lee_Thesis_c-undefined_p-5588d532fdf99b304ee567b9_s-65565c33d1570099995f3126_SESSION_2023-11-16_13h13.17.180.csv","5588d532fdf99b304ee567b9","svTrial","survey",50,2939559,"0.0-2.0-48.0","65553732575bb29198a888d7","65565c33d1570099995f3126",2,"220253","Niigata_large_sch_8_1.jpg",NA,NA,NA,NA,NA,NA,NA,NA,NA,NA,NA,NA,NA,NA,NA,NA,"[]","middle",2,"sch",8,41,4,5,4,4,4,1,"38751","34","male","man","","caucasian","","No","",""
"42","/Users/npcamp/GitHub/perceptual-affordance-Lee_Thesis/data/perceptual-affordance-Lee_Thesis_c-undefined_p-5588d532fdf99b304ee567b9_s-65565c33d1570099995f3126_SESSION_2023-11-16_13h13.17.180.csv","5588d532fdf99b304ee567b9","svTrial","survey",51,3038374,"0.0-2.0-49.0","65553732575bb29198a888d7","65565c33d1570099995f3126",2,"98803","Okinawa_large_sch_9_1.jpg",NA,NA,NA,NA,NA,NA,NA,NA,NA,NA,NA,NA,NA,NA,NA,NA,"[]","small",1,"sch",9,42,3,3,3,2,3,1,"38751","34","male","man","","caucasian","","No","",""
"43","/Users/npcamp/GitHub/perceptual-affordance-Lee_Thesis/data/perceptual-affordance-Lee_Thesis_c-undefined_p-5588d532fdf99b304ee567b9_s-65565c33d1570099995f3126_SESSION_2023-11-16_13h13.17.180.csv","5588d532fdf99b304ee567b9","svTrial","survey",52,3240074,"0.0-2.0-50.0","65553732575bb29198a888d7","65565c33d1570099995f3126",2,"201690","Okinawa_large_sch_8_0.jpg",NA,NA,NA,NA,NA,NA,NA,NA,NA,NA,NA,NA,NA,NA,NA,NA,"[]","middle",1,"sch",8,43,3,2,2,2,3,1,"38751","34","male","man","","caucasian","","No","",""
"44","/Users/npcamp/GitHub/perceptual-affordance-Lee_Thesis/data/perceptual-affordance-Lee_Thesis_c-undefined_p-5588d532fdf99b304ee567b9_s-65565c33d1570099995f3126_SESSION_2023-11-16_13h13.17.180.csv","5588d532fdf99b304ee567b9","svTrial","survey",53,3251689,"0.0-2.0-51.0","65553732575bb29198a888d7","65565c33d1570099995f3126",2,"11602","Toyama_large_sch_5_3.jpg",NA,NA,NA,NA,NA,NA,NA,NA,NA,NA,NA,NA,NA,NA,NA,NA,"[]","large",2,"sch",5,44,2,2,2,2,1,1,"38751","34","male","man","","caucasian","","No","",""
"45","/Users/npcamp/GitHub/perceptual-affordance-Lee_Thesis/data/perceptual-affordance-Lee_Thesis_c-undefined_p-5588d532fdf99b304ee567b9_s-65565c33d1570099995f3126_SESSION_2023-11-16_13h13.17.180.csv","5588d532fdf99b304ee567b9","svTrial","survey",54,3307042,"0.0-2.0-52.0","65553732575bb29198a888d7","65565c33d1570099995f3126",2,"55346","Kanagawa_small_pos_2_0.jpg",NA,NA,NA,NA,NA,NA,NA,NA,NA,NA,NA,NA,NA,NA,NA,NA,"[]","small",1,"sch",2,45,2,3,2,3,3,1,"38751","34","male","man","","caucasian","","No","",""
"46","/Users/npcamp/GitHub/perceptual-affordance-Lee_Thesis/data/perceptual-affordance-Lee_Thesis_c-undefined_p-5588d532fdf99b304ee567b9_s-65565c33d1570099995f3126_SESSION_2023-11-16_13h13.17.180.csv","5588d532fdf99b304ee567b9","svTrial","survey",55,3320454,"0.0-2.0-53.0","65553732575bb29198a888d7","65565c33d1570099995f3126",2,"13400","Okinawa_middle_sch_2_3.jpg",NA,NA,NA,NA,NA,NA,NA,NA,NA,NA,NA,NA,NA,NA,NA,NA,"[]","small",1,"sch",2,46,2,4,3,3,3,1,"38751","34","male","man","","caucasian","","No","",""
"47","/Users/npcamp/GitHub/perceptual-affordance-Lee_Thesis/data/perceptual-affordance-Lee_Thesis_c-undefined_p-5588d532fdf99b304ee567b9_s-65565c33d1570099995f3126_SESSION_2023-11-16_13h13.17.180.csv","5588d532fdf99b304ee567b9","svTrial","survey",56,3394374,"0.0-2.0-54.0","65553732575bb29198a888d7","65565c33d1570099995f3126",2,"73914","Kanagawa_small_pos_3_3.jpg",NA,NA,NA,NA,NA,NA,NA,NA,NA,NA,NA,NA,NA,NA,NA,NA,"[]","large",1,"sch",3,47,3,2,3,2,3,1,"38751","34","male","man","","caucasian","","No","",""
"48","/Users/npcamp/GitHub/perceptual-affordance-Lee_Thesis/data/perceptual-affordance-Lee_Thesis_c-undefined_p-5588d532fdf99b304ee567b9_s-65565c33d1570099995f3126_SESSION_2023-11-16_13h13.17.180.csv","5588d532fdf99b304ee567b9","svTrial","survey",57,3433641,"0.0-2.0-55.0","65553732575bb29198a888d7","65565c33d1570099995f3126",2,"39256","Niigata_large_pos_8_2.jpg",NA,NA,NA,NA,NA,NA,NA,NA,NA,NA,NA,NA,NA,NA,NA,NA,"[]","middle",2,"pos",8,48,4,3,3,3,3,1,"38751","34","male","man","","caucasian","","No","",""
"49","/Users/npcamp/GitHub/perceptual-affordance-Lee_Thesis/data/perceptual-affordance-Lee_Thesis_c-undefined_p-55ced0d234e9060012e5677c_s-6556545caa188e816c973df4_SESSION_2023-11-16_11h03.50.518.csv","55ced0d234e9060012e5677c","svTrial","survey",8,124743,"0.0-2.0-6.0","65553732575bb29198a888d7","6556545caa188e816c973df4",7,"30582","Kanagawa_large_pos_8_2.jpg",NA,NA,NA,NA,NA,NA,NA,NA,NA,NA,NA,NA,NA,NA,NA,NA,"[]","large",1,"pos",8,1,4,3,3,2,3,1,"84065","41","female","woman","","caucasian","","No","",""
"50","/Users/npcamp/GitHub/perceptual-affordance-Lee_Thesis/data/perceptual-affordance-Lee_Thesis_c-undefined_p-55ced0d234e9060012e5677c_s-6556545caa188e816c973df4_SESSION_2023-11-16_11h03.50.518.csv","55ced0d234e9060012e5677c","svTrial","survey",9,146340,"0.0-2.0-7.0","65553732575bb29198a888d7","6556545caa188e816c973df4",7,"21568","Ishikawa_small_pos_1_2.jpg",NA,NA,NA,NA,NA,NA,NA,NA,NA,NA,NA,NA,NA,NA,NA,NA,"[]","small",2,"pos",1,2,4,4,3,2,2,1,"84065","41","female","woman","","caucasian","","No","",""
"51","/Users/npcamp/GitHub/perceptual-affordance-Lee_Thesis/data/perceptual-affordance-Lee_Thesis_c-undefined_p-55ced0d234e9060012e5677c_s-6556545caa188e816c973df4_SESSION_2023-11-16_11h03.50.518.csv","55ced0d234e9060012e5677c","svTrial","survey",10,169124,"0.0-2.0-8.0","65553732575bb29198a888d7","6556545caa188e816c973df4",7,"22761","Toyama_large_sch_7_3.jpg",NA,NA,NA,NA,NA,NA,NA,NA,NA,NA,NA,NA,NA,NA,NA,NA,"[]","small",2,"sch",7,3,2,2,2,1,1,1,"84065","41","female","woman","","caucasian","","No","",""
"52","/Users/npcamp/GitHub/perceptual-affordance-Lee_Thesis/data/perceptual-affordance-Lee_Thesis_c-undefined_p-55ced0d234e9060012e5677c_s-6556545caa188e816c973df4_SESSION_2023-11-16_11h03.50.518.csv","55ced0d234e9060012e5677c","svTrial","survey",11,188634,"0.0-2.0-9.0","65553732575bb29198a888d7","6556545caa188e816c973df4",7,"19487","Ishikawa_small_pos_2_3.jpg",NA,NA,NA,NA,NA,NA,NA,NA,NA,NA,NA,NA,NA,NA,NA,NA,"[]","middle",2,"pos",2,4,3,3,2,3,3,1,"84065","41","female","woman","","caucasian","","No","",""
"53","/Users/npcamp/GitHub/perceptual-affordance-Lee_Thesis/data/perceptual-affordance-Lee_Thesis_c-undefined_p-55ced0d234e9060012e5677c_s-6556545caa188e816c973df4_SESSION_2023-11-16_11h03.50.518.csv","55ced0d234e9060012e5677c","svTrial","survey",12,212365,"0.0-2.0-10.0","65553732575bb29198a888d7","6556545caa188e816c973df4",7,"23711","Okinawa_middle_sch_6_0.jpg",NA,NA,NA,NA,NA,NA,NA,NA,NA,NA,NA,NA,NA,NA,NA,NA,"[]","small",1,"sch",6,5,4,4,3,3,4,1,"84065","41","female","woman","","caucasian","","No","",""
"54","/Users/npcamp/GitHub/perceptual-affordance-Lee_Thesis/data/perceptual-affordance-Lee_Thesis_c-undefined_p-55ced0d234e9060012e5677c_s-6556545caa188e816c973df4_SESSION_2023-11-16_11h03.50.518.csv","55ced0d234e9060012e5677c","svTrial","survey",13,231489,"0.0-2.0-11.0","65553732575bb29198a888d7","6556545caa188e816c973df4",7,"19106","Tokyo_middle_pos_4_1.jpg",NA,NA,NA,NA,NA,NA,NA,NA,NA,NA,NA,NA,NA,NA,NA,NA,"[]","small",1,"pos",4,6,4,4,3,3,3,1,"84065","41","female","woman","","caucasian","","No","",""
"55","/Users/npcamp/GitHub/perceptual-affordance-Lee_Thesis/data/perceptual-affordance-Lee_Thesis_c-undefined_p-55ced0d234e9060012e5677c_s-6556545caa188e816c973df4_SESSION_2023-11-16_11h03.50.518.csv","55ced0d234e9060012e5677c","svTrial","survey",14,253313,"0.0-2.0-12.0","65553732575bb29198a888d7","6556545caa188e816c973df4",7,"21803","Ishikawa_middle_sch_7_1.jpg",NA,NA,NA,NA,NA,NA,NA,NA,NA,NA,NA,NA,NA,NA,NA,NA,"[]","large",2,"pos",7,7,2,2,3,2,2,1,"84065","41","female","woman","","caucasian","","No","",""
"56","/Users/npcamp/GitHub/perceptual-affordance-Lee_Thesis/data/perceptual-affordance-Lee_Thesis_c-undefined_p-55ced0d234e9060012e5677c_s-6556545caa188e816c973df4_SESSION_2023-11-16_11h03.50.518.csv","55ced0d234e9060012e5677c","svTrial","survey",15,280077,"0.0-2.0-13.0","65553732575bb29198a888d7","6556545caa188e816c973df4",7,"26748","Hokkaido_large_pos_6_1.jpg",NA,NA,NA,NA,NA,NA,NA,NA,NA,NA,NA,NA,NA,NA,NA,NA,"[]","middle",1,"pos",6,8,4,4,3,3,3,1,"84065","41","female","woman","","caucasian","","No","",""
"57","/Users/npcamp/GitHub/perceptual-affordance-Lee_Thesis/data/perceptual-affordance-Lee_Thesis_c-undefined_p-55ced0d234e9060012e5677c_s-6556545caa188e816c973df4_SESSION_2023-11-16_11h03.50.518.csv","55ced0d234e9060012e5677c","svTrial","survey",16,298614,"0.0-2.0-14.0","65553732575bb29198a888d7","6556545caa188e816c973df4",7,"18517","Hokkaido_large_sch_7_0.jpg",NA,NA,NA,NA,NA,NA,NA,NA,NA,NA,NA,NA,NA,NA,NA,NA,"[]","large",1,"sch",7,9,4,2,3,2,2,1,"84065","41","female","woman","","caucasian","","No","",""
"58","/Users/npcamp/GitHub/perceptual-affordance-Lee_Thesis/data/perceptual-affordance-Lee_Thesis_c-undefined_p-55ced0d234e9060012e5677c_s-6556545caa188e816c973df4_SESSION_2023-11-16_11h03.50.518.csv","55ced0d234e9060012e5677c","svTrial","survey",17,319458,"0.0-2.0-15.0","65553732575bb29198a888d7","6556545caa188e816c973df4",7,"20822","Akita_small_pos_3_2.jpg",NA,NA,NA,NA,NA,NA,NA,NA,NA,NA,NA,NA,NA,NA,NA,NA,"[]","small",2,"pos",3,10,2,3,3,2,2,1,"84065","41","female","woman","","caucasian","","No","",""
"59","/Users/npcamp/GitHub/perceptual-affordance-Lee_Thesis/data/perceptual-affordance-Lee_Thesis_c-undefined_p-55ced0d234e9060012e5677c_s-6556545caa188e816c973df4_SESSION_2023-11-16_11h03.50.518.csv","55ced0d234e9060012e5677c","svTrial","survey",18,336692,"0.0-2.0-16.0","65553732575bb29198a888d7","6556545caa188e816c973df4",7,"17213","Ishikawa_middle_sch_3_1.jpg",NA,NA,NA,NA,NA,NA,NA,NA,NA,NA,NA,NA,NA,NA,NA,NA,"[]","small",2,"sch",3,11,2,2,3,2,2,1,"84065","41","female","woman","","caucasian","","No","",""
"60","/Users/npcamp/GitHub/perceptual-affordance-Lee_Thesis/data/perceptual-affordance-Lee_Thesis_c-undefined_p-55ced0d234e9060012e5677c_s-6556545caa188e816c973df4_SESSION_2023-11-16_11h03.50.518.csv","55ced0d234e9060012e5677c","svTrial","survey",19,356887,"0.0-2.0-17.0","65553732575bb29198a888d7","6556545caa188e816c973df4",7,"20172","Tokyo_large_sch_3_1.jpg",NA,NA,NA,NA,NA,NA,NA,NA,NA,NA,NA,NA,NA,NA,NA,NA,"[]","large",1,"sch",3,12,4,3,4,3,3,1,"84065","41","female","woman","","caucasian","","No","",""
"61","/Users/npcamp/GitHub/perceptual-affordance-Lee_Thesis/data/perceptual-affordance-Lee_Thesis_c-undefined_p-55ced0d234e9060012e5677c_s-6556545caa188e816c973df4_SESSION_2023-11-16_11h03.50.518.csv","55ced0d234e9060012e5677c","svTrial","survey",20,376116,"0.0-2.0-18.0","65553732575bb29198a888d7","6556545caa188e816c973df4",7,"19210","Niigata_small_sch_2_2.jpg",NA,NA,NA,NA,NA,NA,NA,NA,NA,NA,NA,NA,NA,NA,NA,NA,"[]","small",2,"sch",2,13,3,2,4,3,2,1,"84065","41","female","woman","","caucasian","","No","",""
"62","/Users/npcamp/GitHub/perceptual-affordance-Lee_Thesis/data/perceptual-affordance-Lee_Thesis_c-undefined_p-55ced0d234e9060012e5677c_s-6556545caa188e816c973df4_SESSION_2023-11-16_11h03.50.518.csv","55ced0d234e9060012e5677c","svTrial","survey",21,394472,"0.0-2.0-19.0","65553732575bb29198a888d7","6556545caa188e816c973df4",7,"18339","Kanagawa_middle_sch_4_1.jpg",NA,NA,NA,NA,NA,NA,NA,NA,NA,NA,NA,NA,NA,NA,NA,NA,"[]","middle",1,"sch",4,14,4,4,3,3,3,1,"84065","41","female","woman","","caucasian","","No","",""
"63","/Users/npcamp/GitHub/perceptual-affordance-Lee_Thesis/data/perceptual-affordance-Lee_Thesis_c-undefined_p-55ced0d234e9060012e5677c_s-6556545caa188e816c973df4_SESSION_2023-11-16_11h03.50.518.csv","55ced0d234e9060012e5677c","svTrial","survey",22,410198,"0.0-2.0-20.0","65553732575bb29198a888d7","6556545caa188e816c973df4",7,"15708","Niigata_large_sch_12_0.jpg",NA,NA,NA,NA,NA,NA,NA,NA,NA,NA,NA,NA,NA,NA,NA,NA,"[]","middle",2,"sch",12,15,4,3,3,2,2,1,"84065","41","female","woman","","caucasian","","No","",""
"64","/Users/npcamp/GitHub/perceptual-affordance-Lee_Thesis/data/perceptual-affordance-Lee_Thesis_c-undefined_p-55ced0d234e9060012e5677c_s-6556545caa188e816c973df4_SESSION_2023-11-16_11h03.50.518.csv","55ced0d234e9060012e5677c","svTrial","survey",23,434845,"0.0-2.0-21.0","65553732575bb29198a888d7","6556545caa188e816c973df4",7,"24622","Hokkaido_large_pos_8_3.jpg",NA,NA,NA,NA,NA,NA,NA,NA,NA,NA,NA,NA,NA,NA,NA,NA,"[]","small",1,"sch",8,16,4,4,4,3,3,1,"84065","41","female","woman","","caucasian","","No","",""
"65","/Users/npcamp/GitHub/perceptual-affordance-Lee_Thesis/data/perceptual-affordance-Lee_Thesis_c-undefined_p-55ced0d234e9060012e5677c_s-6556545caa188e816c973df4_SESSION_2023-11-16_11h03.50.518.csv","55ced0d234e9060012e5677c","svTrial","survey",24,449630,"0.0-2.0-22.0","65553732575bb29198a888d7","6556545caa188e816c973df4",7,"14765","Toyama_large_sch_3_3.jpg",NA,NA,NA,NA,NA,NA,NA,NA,NA,NA,NA,NA,NA,NA,NA,NA,"[]","large",2,"sch",3,17,4,4,4,3,4,1,"84065","41","female","woman","","caucasian","","No","",""
"66","/Users/npcamp/GitHub/perceptual-affordance-Lee_Thesis/data/perceptual-affordance-Lee_Thesis_c-undefined_p-55ced0d234e9060012e5677c_s-6556545caa188e816c973df4_SESSION_2023-11-16_11h03.50.518.csv","55ced0d234e9060012e5677c","svTrial","survey",25,471385,"0.0-2.0-23.0","65553732575bb29198a888d7","6556545caa188e816c973df4",7,"21738","Niigata_large_pos_7_2.jpg",NA,NA,NA,NA,NA,NA,NA,NA,NA,NA,NA,NA,NA,NA,NA,NA,"[]","middle",2,"sch",7,18,3,2,4,3,NA,1,"84065","41","female","woman","","caucasian","","No","",""
"67","/Users/npcamp/GitHub/perceptual-affordance-Lee_Thesis/data/perceptual-affordance-Lee_Thesis_c-undefined_p-55ced0d234e9060012e5677c_s-6556545caa188e816c973df4_SESSION_2023-11-16_11h03.50.518.csv","55ced0d234e9060012e5677c","svTrial","survey",26,499407,"0.0-2.0-24.0","65553732575bb29198a888d7","6556545caa188e816c973df4",7,"28006","Tokyo_middle_sch_4_1.jpg",NA,NA,NA,NA,NA,NA,NA,NA,NA,NA,NA,NA,NA,NA,NA,NA,"[]","large",1,"sch",4,19,4,4,4,4,4,1,"84065","41","female","woman","","caucasian","","No","",""
"68","/Users/npcamp/GitHub/perceptual-affordance-Lee_Thesis/data/perceptual-affordance-Lee_Thesis_c-undefined_p-55ced0d234e9060012e5677c_s-6556545caa188e816c973df4_SESSION_2023-11-16_11h03.50.518.csv","55ced0d234e9060012e5677c","svTrial","survey",27,562402,"0.0-2.0-25.0","65553732575bb29198a888d7","6556545caa188e816c973df4",7,"62971","Okinawa_small_sch_3_1.jpg",NA,NA,NA,NA,NA,NA,NA,NA,NA,NA,NA,NA,NA,NA,NA,NA,"[]","large",1,"sch",3,20,5,2,4,3,4,1,"84065","41","female","woman","","caucasian","","No","",""
"69","/Users/npcamp/GitHub/perceptual-affordance-Lee_Thesis/data/perceptual-affordance-Lee_Thesis_c-undefined_p-55ced0d234e9060012e5677c_s-6556545caa188e816c973df4_SESSION_2023-11-16_11h03.50.518.csv","55ced0d234e9060012e5677c","svTrial","survey",28,618563,"0.0-2.0-26.0","65553732575bb29198a888d7","6556545caa188e816c973df4",7,"56141","Hokkaido_small_pos_4_2.jpg",NA,NA,NA,NA,NA,NA,NA,NA,NA,NA,NA,NA,NA,NA,NA,NA,"[]","small",1,"pos",4,21,4,4,4,3,4,1,"84065","41","female","woman","","caucasian","","No","",""
"70","/Users/npcamp/GitHub/perceptual-affordance-Lee_Thesis/data/perceptual-affordance-Lee_Thesis_c-undefined_p-55ced0d234e9060012e5677c_s-6556545caa188e816c973df4_SESSION_2023-11-16_11h03.50.518.csv","55ced0d234e9060012e5677c","svTrial","survey",29,643783,"0.0-2.0-27.0","65553732575bb29198a888d7","6556545caa188e816c973df4",7,"25201","Tokyo_large_sch_6_2.jpg",NA,NA,NA,NA,NA,NA,NA,NA,NA,NA,NA,NA,NA,NA,NA,NA,"[]","large",1,"sch",6,22,4,3,3,4,3,1,"84065","41","female","woman","","caucasian","","No","",""
"71","/Users/npcamp/GitHub/perceptual-affordance-Lee_Thesis/data/perceptual-affordance-Lee_Thesis_c-undefined_p-55ced0d234e9060012e5677c_s-6556545caa188e816c973df4_SESSION_2023-11-16_11h03.50.518.csv","55ced0d234e9060012e5677c","svTrial","survey",30,665626,"0.0-2.0-28.0","65553732575bb29198a888d7","6556545caa188e816c973df4",7,"21826","Tokyo_large_pos_10_1.jpg",NA,NA,NA,NA,NA,NA,NA,NA,NA,NA,NA,NA,NA,NA,NA,NA,"[]","large",1,"sch",10,23,4,3,2,2,2,1,"84065","41","female","woman","","caucasian","","No","",""
"72","/Users/npcamp/GitHub/perceptual-affordance-Lee_Thesis/data/perceptual-affordance-Lee_Thesis_c-undefined_p-55ced0d234e9060012e5677c_s-6556545caa188e816c973df4_SESSION_2023-11-16_11h03.50.518.csv","55ced0d234e9060012e5677c","svTrial","survey",31,689874,"0.0-2.0-29.0","65553732575bb29198a888d7","6556545caa188e816c973df4",7,"24228","Niigata_small_pos_4_0.jpg",NA,NA,NA,NA,NA,NA,NA,NA,NA,NA,NA,NA,NA,NA,NA,NA,"[]","middle",2,"sch",4,24,2,3,2,2,3,1,"84065","41","female","woman","","caucasian","","No","",""
"73","/Users/npcamp/GitHub/perceptual-affordance-Lee_Thesis/data/perceptual-affordance-Lee_Thesis_c-undefined_p-55ced0d234e9060012e5677c_s-6556545caa188e816c973df4_SESSION_2023-11-16_11h03.50.518.csv","55ced0d234e9060012e5677c","svTrial","survey",34,731068,"0.0-2.0-32.0","65553732575bb29198a888d7","6556545caa188e816c973df4",7,"17768","Ishikawa_middle_sch_6_2.jpg",NA,NA,NA,NA,NA,NA,NA,NA,NA,NA,NA,NA,NA,NA,NA,NA,"[]","large",2,"sch",6,25,4,4,3,3,4,1,"84065","41","female","woman","","caucasian","","No","",""
"74","/Users/npcamp/GitHub/perceptual-affordance-Lee_Thesis/data/perceptual-affordance-Lee_Thesis_c-undefined_p-55ced0d234e9060012e5677c_s-6556545caa188e816c973df4_SESSION_2023-11-16_11h03.50.518.csv","55ced0d234e9060012e5677c","svTrial","survey",35,745197,"0.0-2.0-33.0","65553732575bb29198a888d7","6556545caa188e816c973df4",7,"14091","Okinawa_large_pos_7_0.jpg",NA,NA,NA,NA,NA,NA,NA,NA,NA,NA,NA,NA,NA,NA,NA,NA,"[]","large",1,"sch",7,26,4,4,3,4,3,1,"84065","41","female","woman","","caucasian","","No","",""
"75","/Users/npcamp/GitHub/perceptual-affordance-Lee_Thesis/data/perceptual-affordance-Lee_Thesis_c-undefined_p-55ced0d234e9060012e5677c_s-6556545caa188e816c973df4_SESSION_2023-11-16_11h03.50.518.csv","55ced0d234e9060012e5677c","svTrial","survey",36,766306,"0.0-2.0-34.0","65553732575bb29198a888d7","6556545caa188e816c973df4",7,"21076","Okinawa_middle_pos_5_3.jpg",NA,NA,NA,NA,NA,NA,NA,NA,NA,NA,NA,NA,NA,NA,NA,NA,"[]","large",1,"sch",5,27,3,4,3,3,4,1,"84065","41","female","woman","","caucasian","","No","",""
"76","/Users/npcamp/GitHub/perceptual-affordance-Lee_Thesis/data/perceptual-affordance-Lee_Thesis_c-undefined_p-55ced0d234e9060012e5677c_s-6556545caa188e816c973df4_SESSION_2023-11-16_11h03.50.518.csv","55ced0d234e9060012e5677c","svTrial","survey",37,786710,"0.0-2.0-35.0","65553732575bb29198a888d7","6556545caa188e816c973df4",7,"20387","Akita_middle_pos_6_1.jpg",NA,NA,NA,NA,NA,NA,NA,NA,NA,NA,NA,NA,NA,NA,NA,NA,"[]","large",2,"sch",6,28,4,3,4,3,3,1,"84065","41","female","woman","","caucasian","","No","",""
"77","/Users/npcamp/GitHub/perceptual-affordance-Lee_Thesis/data/perceptual-affordance-Lee_Thesis_c-undefined_p-55ced0d234e9060012e5677c_s-6556545caa188e816c973df4_SESSION_2023-11-16_11h03.50.518.csv","55ced0d234e9060012e5677c","svTrial","survey",38,805711,"0.0-2.0-36.0","65553732575bb29198a888d7","6556545caa188e816c973df4",7,"18980","Hokkaido_middle_pos_5_1.jpg",NA,NA,NA,NA,NA,NA,NA,NA,NA,NA,NA,NA,NA,NA,NA,NA,"[]","middle",1,"pos",5,29,4,4,4,2,3,1,"84065","41","female","woman","","caucasian","","No","",""
"78","/Users/npcamp/GitHub/perceptual-affordance-Lee_Thesis/data/perceptual-affordance-Lee_Thesis_c-undefined_p-55ced0d234e9060012e5677c_s-6556545caa188e816c973df4_SESSION_2023-11-16_11h03.50.518.csv","55ced0d234e9060012e5677c","svTrial","survey",39,830548,"0.0-2.0-37.0","65553732575bb29198a888d7","6556545caa188e816c973df4",7,"24810","Kanagawa_large_sch_1_1.jpg",NA,NA,NA,NA,NA,NA,NA,NA,NA,NA,NA,NA,NA,NA,NA,NA,"[]","middle",1,"sch",1,30,3,3,4,2,3,1,"84065","41","female","woman","","caucasian","","No","",""
"79","/Users/npcamp/GitHub/perceptual-affordance-Lee_Thesis/data/perceptual-affordance-Lee_Thesis_c-undefined_p-55ced0d234e9060012e5677c_s-6556545caa188e816c973df4_SESSION_2023-11-16_11h03.50.518.csv","55ced0d234e9060012e5677c","svTrial","survey",40,845897,"0.0-2.0-38.0","65553732575bb29198a888d7","6556545caa188e816c973df4",7,"15315","Akita_small_pos_1_1.jpg",NA,NA,NA,NA,NA,NA,NA,NA,NA,NA,NA,NA,NA,NA,NA,NA,"[]","middle",2,"pos",1,31,4,3,4,2,3,1,"84065","41","female","woman","","caucasian","","No","",""
"80","/Users/npcamp/GitHub/perceptual-affordance-Lee_Thesis/data/perceptual-affordance-Lee_Thesis_c-undefined_p-55ced0d234e9060012e5677c_s-6556545caa188e816c973df4_SESSION_2023-11-16_11h03.50.518.csv","55ced0d234e9060012e5677c","svTrial","survey",41,876513,"0.0-2.0-39.0","65553732575bb29198a888d7","6556545caa188e816c973df4",7,"30575","Tokyo_large_pos_11_2.jpg",NA,NA,NA,NA,NA,NA,NA,NA,NA,NA,NA,NA,NA,NA,NA,NA,"[]","small",1,"sch",11,32,3,2,2,1,2,1,"84065","41","female","woman","","caucasian","","No","",""
"81","/Users/npcamp/GitHub/perceptual-affordance-Lee_Thesis/data/perceptual-affordance-Lee_Thesis_c-undefined_p-55ced0d234e9060012e5677c_s-6556545caa188e816c973df4_SESSION_2023-11-16_11h03.50.518.csv","55ced0d234e9060012e5677c","svTrial","survey",42,905938,"0.0-2.0-40.0","65553732575bb29198a888d7","6556545caa188e816c973df4",7,"29389","Ishikawa_middle_pos_5_2.jpg",NA,NA,NA,NA,NA,NA,NA,NA,NA,NA,NA,NA,NA,NA,NA,NA,"[]","large",2,"sch",5,33,3,3,3,3,2,1,"84065","41","female","woman","","caucasian","","No","",""
"82","/Users/npcamp/GitHub/perceptual-affordance-Lee_Thesis/data/perceptual-affordance-Lee_Thesis_c-undefined_p-55ced0d234e9060012e5677c_s-6556545caa188e816c973df4_SESSION_2023-11-16_11h03.50.518.csv","55ced0d234e9060012e5677c","svTrial","survey",43,930816,"0.0-2.0-41.0","65553732575bb29198a888d7","6556545caa188e816c973df4",7,"24834","Ishikawa_large_sch_7_0.jpg",NA,NA,NA,NA,NA,NA,NA,NA,NA,NA,NA,NA,NA,NA,NA,NA,"[]","large",2,"pos",7,34,4,3,3,2,3,1,"84065","41","female","woman","","caucasian","","No","",""
"83","/Users/npcamp/GitHub/perceptual-affordance-Lee_Thesis/data/perceptual-affordance-Lee_Thesis_c-undefined_p-55ced0d234e9060012e5677c_s-6556545caa188e816c973df4_SESSION_2023-11-16_11h03.50.518.csv","55ced0d234e9060012e5677c","svTrial","survey",44,949887,"0.0-2.0-42.0","65553732575bb29198a888d7","6556545caa188e816c973df4",7,"19036","Ishikawa_large_sch_8_2.jpg",NA,NA,NA,NA,NA,NA,NA,NA,NA,NA,NA,NA,NA,NA,NA,NA,"[]","large",2,"pos",8,35,4,3,3,2,2,1,"84065","41","female","woman","","caucasian","","No","",""
"84","/Users/npcamp/GitHub/perceptual-affordance-Lee_Thesis/data/perceptual-affordance-Lee_Thesis_c-undefined_p-55ced0d234e9060012e5677c_s-6556545caa188e816c973df4_SESSION_2023-11-16_11h03.50.518.csv","55ced0d234e9060012e5677c","svTrial","survey",45,979620,"0.0-2.0-43.0","65553732575bb29198a888d7","6556545caa188e816c973df4",7,"29691","Okinawa_middle_sch_8_0.jpg",NA,NA,NA,NA,NA,NA,NA,NA,NA,NA,NA,NA,NA,NA,NA,NA,"[]","large",1,"sch",8,36,3,2,3,2,2,1,"84065","41","female","woman","","caucasian","","No","",""
"85","/Users/npcamp/GitHub/perceptual-affordance-Lee_Thesis/data/perceptual-affordance-Lee_Thesis_c-undefined_p-55ced0d234e9060012e5677c_s-6556545caa188e816c973df4_SESSION_2023-11-16_11h03.50.518.csv","55ced0d234e9060012e5677c","svTrial","survey",46,999490,"0.0-2.0-44.0","65553732575bb29198a888d7","6556545caa188e816c973df4",7,"19854","Hokkaido_large_sch_9_0.jpg",NA,NA,NA,NA,NA,NA,NA,NA,NA,NA,NA,NA,NA,NA,NA,NA,"[]","large",1,"sch",9,37,4,4,4,2,3,1,"84065","41","female","woman","","caucasian","","No","",""
"86","/Users/npcamp/GitHub/perceptual-affordance-Lee_Thesis/data/perceptual-affordance-Lee_Thesis_c-undefined_p-55ced0d234e9060012e5677c_s-6556545caa188e816c973df4_SESSION_2023-11-16_11h03.50.518.csv","55ced0d234e9060012e5677c","svTrial","survey",47,1020583,"0.0-2.0-45.0","65553732575bb29198a888d7","6556545caa188e816c973df4",7,"21050","Toyama_middle_sch_2_3.jpg",NA,NA,NA,NA,NA,NA,NA,NA,NA,NA,NA,NA,NA,NA,NA,NA,"[]","large",2,"pos",2,38,2,2,3,2,2,1,"84065","41","female","woman","","caucasian","","No","",""
"87","/Users/npcamp/GitHub/perceptual-affordance-Lee_Thesis/data/perceptual-affordance-Lee_Thesis_c-undefined_p-55ced0d234e9060012e5677c_s-6556545caa188e816c973df4_SESSION_2023-11-16_11h03.50.518.csv","55ced0d234e9060012e5677c","svTrial","survey",48,1045452,"0.0-2.0-46.0","65553732575bb29198a888d7","6556545caa188e816c973df4",7,"24840","Niigata_middle_sch_3_2.jpg",NA,NA,NA,NA,NA,NA,NA,NA,NA,NA,NA,NA,NA,NA,NA,NA,"[]","middle",2,"pos",3,39,3,3,3,2,3,1,"84065","41","female","woman","","caucasian","","No","",""
"88","/Users/npcamp/GitHub/perceptual-affordance-Lee_Thesis/data/perceptual-affordance-Lee_Thesis_c-undefined_p-55ced0d234e9060012e5677c_s-6556545caa188e816c973df4_SESSION_2023-11-16_11h03.50.518.csv","55ced0d234e9060012e5677c","svTrial","survey",49,1074316,"0.0-2.0-47.0","65553732575bb29198a888d7","6556545caa188e816c973df4",7,"28828","Hokkaido_middle_sch_8_2.jpg",NA,NA,NA,NA,NA,NA,NA,NA,NA,NA,NA,NA,NA,NA,NA,NA,"[]","large",1,"pos",8,40,2,2,3,2,2,1,"84065","41","female","woman","","caucasian","","No","",""
"89","/Users/npcamp/GitHub/perceptual-affordance-Lee_Thesis/data/perceptual-affordance-Lee_Thesis_c-undefined_p-55ced0d234e9060012e5677c_s-6556545caa188e816c973df4_SESSION_2023-11-16_11h03.50.518.csv","55ced0d234e9060012e5677c","svTrial","survey",50,1098104,"0.0-2.0-48.0","65553732575bb29198a888d7","6556545caa188e816c973df4",7,"23762","Hokkaido_small_sch_1_1.jpg",NA,NA,NA,NA,NA,NA,NA,NA,NA,NA,NA,NA,NA,NA,NA,NA,"[]","small",1,"pos",1,41,4,3,4,3,3,1,"84065","41","female","woman","","caucasian","","No","",""
"90","/Users/npcamp/GitHub/perceptual-affordance-Lee_Thesis/data/perceptual-affordance-Lee_Thesis_c-undefined_p-55ced0d234e9060012e5677c_s-6556545caa188e816c973df4_SESSION_2023-11-16_11h03.50.518.csv","55ced0d234e9060012e5677c","svTrial","survey",51,1117208,"0.0-2.0-49.0","65553732575bb29198a888d7","6556545caa188e816c973df4",7,"19062","Tokyo_large_sch_4_3.jpg",NA,NA,NA,NA,NA,NA,NA,NA,NA,NA,NA,NA,NA,NA,NA,NA,"[]","small",1,"pos",4,42,3,3,4,2,2,1,"84065","41","female","woman","","caucasian","","No","",""
"91","/Users/npcamp/GitHub/perceptual-affordance-Lee_Thesis/data/perceptual-affordance-Lee_Thesis_c-undefined_p-55ced0d234e9060012e5677c_s-6556545caa188e816c973df4_SESSION_2023-11-16_11h03.50.518.csv","55ced0d234e9060012e5677c","svTrial","survey",52,1143410,"0.0-2.0-50.0","65553732575bb29198a888d7","6556545caa188e816c973df4",7,"26186","Akita_middle_pos_8_3.jpg",NA,NA,NA,NA,NA,NA,NA,NA,NA,NA,NA,NA,NA,NA,NA,NA,"[]","small",2,"sch",8,43,4,4,3,2,3,1,"84065","41","female","woman","","caucasian","","No","",""
"92","/Users/npcamp/GitHub/perceptual-affordance-Lee_Thesis/data/perceptual-affordance-Lee_Thesis_c-undefined_p-55ced0d234e9060012e5677c_s-6556545caa188e816c973df4_SESSION_2023-11-16_11h03.50.518.csv","55ced0d234e9060012e5677c","svTrial","survey",53,1169597,"0.0-2.0-51.0","65553732575bb29198a888d7","6556545caa188e816c973df4",7,"26149","Niigata_large_sch_6_0.jpg",NA,NA,NA,NA,NA,NA,NA,NA,NA,NA,NA,NA,NA,NA,NA,NA,"[]","small",2,"sch",6,44,2,2,1,1,2,1,"84065","41","female","woman","","caucasian","","No","",""
"93","/Users/npcamp/GitHub/perceptual-affordance-Lee_Thesis/data/perceptual-affordance-Lee_Thesis_c-undefined_p-55ced0d234e9060012e5677c_s-6556545caa188e816c973df4_SESSION_2023-11-16_11h03.50.518.csv","55ced0d234e9060012e5677c","svTrial","survey",54,1199634,"0.0-2.0-52.0","65553732575bb29198a888d7","6556545caa188e816c973df4",7,"29998","Akita_middle_sch_3_1.jpg",NA,NA,NA,NA,NA,NA,NA,NA,NA,NA,NA,NA,NA,NA,NA,NA,"[]","large",2,"pos",3,45,3,2,1,2,2,1,"84065","41","female","woman","","caucasian","","No","",""
"94","/Users/npcamp/GitHub/perceptual-affordance-Lee_Thesis/data/perceptual-affordance-Lee_Thesis_c-undefined_p-55ced0d234e9060012e5677c_s-6556545caa188e816c973df4_SESSION_2023-11-16_11h03.50.518.csv","55ced0d234e9060012e5677c","svTrial","survey",55,1226213,"0.0-2.0-53.0","65553732575bb29198a888d7","6556545caa188e816c973df4",7,"26539","Akita_middle_pos_4_3.jpg",NA,NA,NA,NA,NA,NA,NA,NA,NA,NA,NA,NA,NA,NA,NA,NA,"[]","large",2,"pos",4,46,3,4,3,3,3,1,"84065","41","female","woman","","caucasian","","No","",""
"95","/Users/npcamp/GitHub/perceptual-affordance-Lee_Thesis/data/perceptual-affordance-Lee_Thesis_c-undefined_p-55ced0d234e9060012e5677c_s-6556545caa188e816c973df4_SESSION_2023-11-16_11h03.50.518.csv","55ced0d234e9060012e5677c","svTrial","survey",56,1248580,"0.0-2.0-54.0","65553732575bb29198a888d7","6556545caa188e816c973df4",7,"22352","Tokyo_middle_sch_1_1.jpg",NA,NA,NA,NA,NA,NA,NA,NA,NA,NA,NA,NA,NA,NA,NA,NA,"[]","large",1,"sch",1,47,4,3,3,2,4,1,"84065","41","female","woman","","caucasian","","No","",""
"96","/Users/npcamp/GitHub/perceptual-affordance-Lee_Thesis/data/perceptual-affordance-Lee_Thesis_c-undefined_p-55ced0d234e9060012e5677c_s-6556545caa188e816c973df4_SESSION_2023-11-16_11h03.50.518.csv","55ced0d234e9060012e5677c","svTrial","survey",57,1274116,"0.0-2.0-55.0","65553732575bb29198a888d7","6556545caa188e816c973df4",7,"25517","Niigata_middle_sch_1_0.jpg",NA,NA,NA,NA,NA,NA,NA,NA,NA,NA,NA,NA,NA,NA,NA,NA,"[]","large",2,"sch",1,48,4,3,4,4,3,1,"84065","41","female","woman","","caucasian","","No","",""
"97","/Users/npcamp/GitHub/perceptual-affordance-Lee_Thesis/data/perceptual-affordance-Lee_Thesis_c-undefined_p-564f2da09b1249000b7eafd5_s-655655c869e65158ed81bc52_SESSION_2023-11-16_12h03.10.791.csv","564f2da09b1249000b7eafd5","svTrial","survey",8,77056,"0.0-2.0-6.0","65553732575bb29198a888d7","655655c869e65158ed81bc52",8,"29959","Hokkaido_large_pos_2_2.jpg",NA,NA,NA,NA,NA,NA,NA,NA,NA,NA,NA,NA,NA,NA,NA,NA,"[]","small",1,"sch",2,1,3,2,4,3,2,1,"76201","32","female","man","","latino","","No","",""
"98","/Users/npcamp/GitHub/perceptual-affordance-Lee_Thesis/data/perceptual-affordance-Lee_Thesis_c-undefined_p-564f2da09b1249000b7eafd5_s-655655c869e65158ed81bc52_SESSION_2023-11-16_12h03.10.791.csv","564f2da09b1249000b7eafd5","svTrial","survey",9,104280,"0.0-2.0-7.0","65553732575bb29198a888d7","655655c869e65158ed81bc52",8,"27213","Tokyo_middle_pos_2_1.jpg",NA,NA,NA,NA,NA,NA,NA,NA,NA,NA,NA,NA,NA,NA,NA,NA,"[]","large",1,"pos",2,2,4,1,4,1,2,1,"76201","32","female","man","","latino","","No","",""
"99","/Users/npcamp/GitHub/perceptual-affordance-Lee_Thesis/data/perceptual-affordance-Lee_Thesis_c-undefined_p-564f2da09b1249000b7eafd5_s-655655c869e65158ed81bc52_SESSION_2023-11-16_12h03.10.791.csv","564f2da09b1249000b7eafd5","svTrial","survey",10,131106,"0.0-2.0-8.0","65553732575bb29198a888d7","655655c869e65158ed81bc52",8,"26815","Tokyo_middle_pos_1_2.jpg",NA,NA,NA,NA,NA,NA,NA,NA,NA,NA,NA,NA,NA,NA,NA,NA,"[]","large",1,"sch",1,3,2,3,3,2,2,1,"76201","32","female","man","","latino","","No","",""
"100","/Users/npcamp/GitHub/perceptual-affordance-Lee_Thesis/data/perceptual-affordance-Lee_Thesis_c-undefined_p-564f2da09b1249000b7eafd5_s-655655c869e65158ed81bc52_SESSION_2023-11-16_12h03.10.791.csv","564f2da09b1249000b7eafd5","svTrial","survey",11,155297,"0.0-2.0-9.0","65553732575bb29198a888d7","655655c869e65158ed81bc52",8,"24178","Kanagawa_middle_sch_7_1.jpg",NA,NA,NA,NA,NA,NA,NA,NA,NA,NA,NA,NA,NA,NA,NA,NA,"[]","large",1,"pos",7,4,4,3,4,4,3,1,"76201","32","female","man","","latino","","No","",""
"101","/Users/npcamp/GitHub/perceptual-affordance-Lee_Thesis/data/perceptual-affordance-Lee_Thesis_c-undefined_p-564f2da09b1249000b7eafd5_s-655655c869e65158ed81bc52_SESSION_2023-11-16_12h03.10.791.csv","564f2da09b1249000b7eafd5","svTrial","survey",12,189456,"0.0-2.0-10.0","65553732575bb29198a888d7","655655c869e65158ed81bc52",8,"34148","Ishikawa_large_pos_9_2.jpg",NA,NA,NA,NA,NA,NA,NA,NA,NA,NA,NA,NA,NA,NA,NA,NA,"[]","large",2,"pos",9,5,5,4,4,3,4,1,"76201","32","female","man","","latino","","No","",""
"102","/Users/npcamp/GitHub/perceptual-affordance-Lee_Thesis/data/perceptual-affordance-Lee_Thesis_c-undefined_p-564f2da09b1249000b7eafd5_s-655655c869e65158ed81bc52_SESSION_2023-11-16_12h03.10.791.csv","564f2da09b1249000b7eafd5","svTrial","survey",13,203991,"0.0-2.0-11.0","65553732575bb29198a888d7","655655c869e65158ed81bc52",8,"14526","Okinawa_middle_pos_8_3.jpg",NA,NA,NA,NA,NA,NA,NA,NA,NA,NA,NA,NA,NA,NA,NA,NA,"[]","small",1,"pos",8,6,5,2,5,4,4,1,"76201","32","female","man","","latino","","No","",""
"103","/Users/npcamp/GitHub/perceptual-affordance-Lee_Thesis/data/perceptual-affordance-Lee_Thesis_c-undefined_p-564f2da09b1249000b7eafd5_s-655655c869e65158ed81bc52_SESSION_2023-11-16_12h03.10.791.csv","564f2da09b1249000b7eafd5","svTrial","survey",14,218600,"0.0-2.0-12.0","65553732575bb29198a888d7","655655c869e65158ed81bc52",8,"14598","Toyama_middle_pos_6_3.jpg",NA,NA,NA,NA,NA,NA,NA,NA,NA,NA,NA,NA,NA,NA,NA,NA,"[]","small",2,"pos",6,7,2,1,3,2,2,1,"76201","32","female","man","","latino","","No","",""
"104","/Users/npcamp/GitHub/perceptual-affordance-Lee_Thesis/data/perceptual-affordance-Lee_Thesis_c-undefined_p-564f2da09b1249000b7eafd5_s-655655c869e65158ed81bc52_SESSION_2023-11-16_12h03.10.791.csv","564f2da09b1249000b7eafd5","svTrial","survey",15,235840,"0.0-2.0-13.0","65553732575bb29198a888d7","655655c869e65158ed81bc52",8,"17230","Niigata_middle_sch_6_3.jpg",NA,NA,NA,NA,NA,NA,NA,NA,NA,NA,NA,NA,NA,NA,NA,NA,"[]","large",2,"sch",6,8,5,3,4,3,4,1,"76201","32","female","man","","latino","","No","",""
"105","/Users/npcamp/GitHub/perceptual-affordance-Lee_Thesis/data/perceptual-affordance-Lee_Thesis_c-undefined_p-564f2da09b1249000b7eafd5_s-655655c869e65158ed81bc52_SESSION_2023-11-16_12h03.10.791.csv","564f2da09b1249000b7eafd5","svTrial","survey",16,282890,"0.0-2.0-14.0","65553732575bb29198a888d7","655655c869e65158ed81bc52",8,"47038","Toyama_large_sch_6_0.jpg",NA,NA,NA,NA,NA,NA,NA,NA,NA,NA,NA,NA,NA,NA,NA,NA,"[]","middle",2,"sch",6,9,4,1,4,3,2,1,"76201","32","female","man","","latino","","No","",""
"106","/Users/npcamp/GitHub/perceptual-affordance-Lee_Thesis/data/perceptual-affordance-Lee_Thesis_c-undefined_p-564f2da09b1249000b7eafd5_s-655655c869e65158ed81bc52_SESSION_2023-11-16_12h03.10.791.csv","564f2da09b1249000b7eafd5","svTrial","survey",17,297466,"0.0-2.0-15.0","65553732575bb29198a888d7","655655c869e65158ed81bc52",8,"14566","Hokkaido_middle_pos_7_2.jpg",NA,NA,NA,NA,NA,NA,NA,NA,NA,NA,NA,NA,NA,NA,NA,NA,"[]","small",1,"sch",7,10,1,1,2,1,2,1,"76201","32","female","man","","latino","","No","",""
"107","/Users/npcamp/GitHub/perceptual-affordance-Lee_Thesis/data/perceptual-affordance-Lee_Thesis_c-undefined_p-564f2da09b1249000b7eafd5_s-655655c869e65158ed81bc52_SESSION_2023-11-16_12h03.10.791.csv","564f2da09b1249000b7eafd5","svTrial","survey",18,313105,"0.0-2.0-16.0","65553732575bb29198a888d7","655655c869e65158ed81bc52",8,"15631","Toyama_small_pos_1_2.jpg",NA,NA,NA,NA,NA,NA,NA,NA,NA,NA,NA,NA,NA,NA,NA,NA,"[]","small",2,"pos",1,11,4,5,4,3,4,1,"76201","32","female","man","","latino","","No","",""
"108","/Users/npcamp/GitHub/perceptual-affordance-Lee_Thesis/data/perceptual-affordance-Lee_Thesis_c-undefined_p-564f2da09b1249000b7eafd5_s-655655c869e65158ed81bc52_SESSION_2023-11-16_12h03.10.791.csv","564f2da09b1249000b7eafd5","svTrial","survey",19,327016,"0.0-2.0-17.0","65553732575bb29198a888d7","655655c869e65158ed81bc52",8,"13900","Toyama_large_sch_2_1.jpg",NA,NA,NA,NA,NA,NA,NA,NA,NA,NA,NA,NA,NA,NA,NA,NA,"[]","large",2,"pos",2,12,3,3,4,3,3,1,"76201","32","female","man","","latino","","No","",""
"109","/Users/npcamp/GitHub/perceptual-affordance-Lee_Thesis/data/perceptual-affordance-Lee_Thesis_c-undefined_p-564f2da09b1249000b7eafd5_s-655655c869e65158ed81bc52_SESSION_2023-11-16_12h03.10.791.csv","564f2da09b1249000b7eafd5","svTrial","survey",20,341634,"0.0-2.0-18.0","65553732575bb29198a888d7","655655c869e65158ed81bc52",8,"14611","Tokyo_large_sch_5_3.jpg",NA,NA,NA,NA,NA,NA,NA,NA,NA,NA,NA,NA,NA,NA,NA,NA,"[]","large",1,"sch",5,13,5,1,5,4,4,1,"76201","32","female","man","","latino","","No","",""
"110","/Users/npcamp/GitHub/perceptual-affordance-Lee_Thesis/data/perceptual-affordance-Lee_Thesis_c-undefined_p-564f2da09b1249000b7eafd5_s-655655c869e65158ed81bc52_SESSION_2023-11-16_12h03.10.791.csv","564f2da09b1249000b7eafd5","svTrial","survey",22,365609,"0.0-2.0-20.0","65553732575bb29198a888d7","655655c869e65158ed81bc52",8,"17463","Hokkaido_large_sch_10_3.jpg",NA,NA,NA,NA,NA,NA,NA,NA,NA,NA,NA,NA,NA,NA,NA,NA,"[]","large",1,"pos",10,14,2,3,2,2,3,1,"76201","32","female","man","","latino","","No","",""
"111","/Users/npcamp/GitHub/perceptual-affordance-Lee_Thesis/data/perceptual-affordance-Lee_Thesis_c-undefined_p-564f2da09b1249000b7eafd5_s-655655c869e65158ed81bc52_SESSION_2023-11-16_12h03.10.791.csv","564f2da09b1249000b7eafd5","svTrial","survey",23,378099,"0.0-2.0-21.0","65553732575bb29198a888d7","655655c869e65158ed81bc52",8,"12479","Okinawa_large_pos_11_3.jpg",NA,NA,NA,NA,NA,NA,NA,NA,NA,NA,NA,NA,NA,NA,NA,NA,"[]","large",1,"pos",11,15,3,4,3,5,4,1,"76201","32","female","man","","latino","","No","",""
"112","/Users/npcamp/GitHub/perceptual-affordance-Lee_Thesis/data/perceptual-affordance-Lee_Thesis_c-undefined_p-564f2da09b1249000b7eafd5_s-655655c869e65158ed81bc52_SESSION_2023-11-16_12h03.10.791.csv","564f2da09b1249000b7eafd5","svTrial","survey",24,395260,"0.0-2.0-22.0","65553732575bb29198a888d7","655655c869e65158ed81bc52",8,"17151","Okinawa_small_pos_1_1.jpg",NA,NA,NA,NA,NA,NA,NA,NA,NA,NA,NA,NA,NA,NA,NA,NA,"[]","large",1,"sch",1,16,2,2,2,2,2,1,"76201","32","female","man","","latino","","No","",""
"113","/Users/npcamp/GitHub/perceptual-affordance-Lee_Thesis/data/perceptual-affordance-Lee_Thesis_c-undefined_p-564f2da09b1249000b7eafd5_s-655655c869e65158ed81bc52_SESSION_2023-11-16_12h03.10.791.csv","564f2da09b1249000b7eafd5","svTrial","survey",25,408991,"0.0-2.0-23.0","65553732575bb29198a888d7","655655c869e65158ed81bc52",8,"13722","Akita_small_sch_2_0.jpg",NA,NA,NA,NA,NA,NA,NA,NA,NA,NA,NA,NA,NA,NA,NA,NA,"[]","small",2,"pos",2,17,4,1,4,2,3,1,"76201","32","female","man","","latino","","No","",""
"114","/Users/npcamp/GitHub/perceptual-affordance-Lee_Thesis/data/perceptual-affordance-Lee_Thesis_c-undefined_p-564f2da09b1249000b7eafd5_s-655655c869e65158ed81bc52_SESSION_2023-11-16_12h03.10.791.csv","564f2da09b1249000b7eafd5","svTrial","survey",26,426087,"0.0-2.0-24.0","65553732575bb29198a888d7","655655c869e65158ed81bc52",8,"17084","Niigata_small_sch_3_2.jpg",NA,NA,NA,NA,NA,NA,NA,NA,NA,NA,NA,NA,NA,NA,NA,NA,"[]","middle",2,"sch",3,18,3,1,4,4,4,1,"76201","32","female","man","","latino","","No","",""
"115","/Users/npcamp/GitHub/perceptual-affordance-Lee_Thesis/data/perceptual-affordance-Lee_Thesis_c-undefined_p-564f2da09b1249000b7eafd5_s-655655c869e65158ed81bc52_SESSION_2023-11-16_12h03.10.791.csv","564f2da09b1249000b7eafd5","svTrial","survey",27,441361,"0.0-2.0-25.0","65553732575bb29198a888d7","655655c869e65158ed81bc52",8,"15264","Kanagawa_large_sch_10_0.jpg",NA,NA,NA,NA,NA,NA,NA,NA,NA,NA,NA,NA,NA,NA,NA,NA,"[]","large",1,"pos",10,19,2,4,4,4,4,1,"76201","32","female","man","","latino","","No","",""
"116","/Users/npcamp/GitHub/perceptual-affordance-Lee_Thesis/data/perceptual-affordance-Lee_Thesis_c-undefined_p-564f2da09b1249000b7eafd5_s-655655c869e65158ed81bc52_SESSION_2023-11-16_12h03.10.791.csv","564f2da09b1249000b7eafd5","svTrial","survey",28,461782,"0.0-2.0-26.0","65553732575bb29198a888d7","655655c869e65158ed81bc52",8,"20410","Niigata_middle_pos_2_2.jpg",NA,NA,NA,NA,NA,NA,NA,NA,NA,NA,NA,NA,NA,NA,NA,NA,"[]","large",2,"pos",2,20,1,1,2,2,2,1,"76201","32","female","man","","latino","","No","",""
"117","/Users/npcamp/GitHub/perceptual-affordance-Lee_Thesis/data/perceptual-affordance-Lee_Thesis_c-undefined_p-564f2da09b1249000b7eafd5_s-655655c869e65158ed81bc52_SESSION_2023-11-16_12h03.10.791.csv","564f2da09b1249000b7eafd5","svTrial","survey",29,477309,"0.0-2.0-27.0","65553732575bb29198a888d7","655655c869e65158ed81bc52",8,"15517","Akita_large_pos_4_3.jpg",NA,NA,NA,NA,NA,NA,NA,NA,NA,NA,NA,NA,NA,NA,NA,NA,"[]","middle",2,"pos",4,21,2,3,2,3,2,1,"76201","32","female","man","","latino","","No","",""
"118","/Users/npcamp/GitHub/perceptual-affordance-Lee_Thesis/data/perceptual-affordance-Lee_Thesis_c-undefined_p-564f2da09b1249000b7eafd5_s-655655c869e65158ed81bc52_SESSION_2023-11-16_12h03.10.791.csv","564f2da09b1249000b7eafd5","svTrial","survey",30,493158,"0.0-2.0-28.0","65553732575bb29198a888d7","655655c869e65158ed81bc52",8,"15840","Akita_middle_pos_3_1.jpg",NA,NA,NA,NA,NA,NA,NA,NA,NA,NA,NA,NA,NA,NA,NA,NA,"[]","middle",2,"pos",3,22,2,1,3,3,3,1,"76201","32","female","man","","latino","","No","",""
"119","/Users/npcamp/GitHub/perceptual-affordance-Lee_Thesis/data/perceptual-affordance-Lee_Thesis_c-undefined_p-564f2da09b1249000b7eafd5_s-655655c869e65158ed81bc52_SESSION_2023-11-16_12h03.10.791.csv","564f2da09b1249000b7eafd5","svTrial","survey",31,517935,"0.0-2.0-29.0","65553732575bb29198a888d7","655655c869e65158ed81bc52",8,"24768","Kanagawa_small_pos_4_3.jpg",NA,NA,NA,NA,NA,NA,NA,NA,NA,NA,NA,NA,NA,NA,NA,NA,"[]","middle",1,"pos",4,23,2,2,3,3,4,1,"76201","32","female","man","","latino","","No","",""
"120","/Users/npcamp/GitHub/perceptual-affordance-Lee_Thesis/data/perceptual-affordance-Lee_Thesis_c-undefined_p-564f2da09b1249000b7eafd5_s-655655c869e65158ed81bc52_SESSION_2023-11-16_12h03.10.791.csv","564f2da09b1249000b7eafd5","svTrial","survey",32,532421,"0.0-2.0-30.0","65553732575bb29198a888d7","655655c869e65158ed81bc52",8,"14474","Tokyo_small_sch_2_2.jpg",NA,NA,NA,NA,NA,NA,NA,NA,NA,NA,NA,NA,NA,NA,NA,NA,"[]","small",1,"pos",2,24,2,2,2,3,3,1,"76201","32","female","man","","latino","","No","",""
"121","/Users/npcamp/GitHub/perceptual-affordance-Lee_Thesis/data/perceptual-affordance-Lee_Thesis_c-undefined_p-564f2da09b1249000b7eafd5_s-655655c869e65158ed81bc52_SESSION_2023-11-16_12h03.10.791.csv","564f2da09b1249000b7eafd5","svTrial","survey",34,549369,"0.0-2.0-32.0","65553732575bb29198a888d7","655655c869e65158ed81bc52",8,"11762","Ishikawa_small_sch_2_2.jpg",NA,NA,NA,NA,NA,NA,NA,NA,NA,NA,NA,NA,NA,NA,NA,NA,"[]","large",2,"sch",2,25,1,1,1,1,1,1,"76201","32","female","man","","latino","","No","",""
"122","/Users/npcamp/GitHub/perceptual-affordance-Lee_Thesis/data/perceptual-affordance-Lee_Thesis_c-undefined_p-564f2da09b1249000b7eafd5_s-655655c869e65158ed81bc52_SESSION_2023-11-16_12h03.10.791.csv","564f2da09b1249000b7eafd5","svTrial","survey",35,562759,"0.0-2.0-33.0","65553732575bb29198a888d7","655655c869e65158ed81bc52",8,"13377","Toyama_middle_sch_4_1.jpg",NA,NA,NA,NA,NA,NA,NA,NA,NA,NA,NA,NA,NA,NA,NA,NA,"[]","middle",2,"sch",4,26,1,2,2,2,2,1,"76201","32","female","man","","latino","","No","",""
"123","/Users/npcamp/GitHub/perceptual-affordance-Lee_Thesis/data/perceptual-affordance-Lee_Thesis_c-undefined_p-564f2da09b1249000b7eafd5_s-655655c869e65158ed81bc52_SESSION_2023-11-16_12h03.10.791.csv","564f2da09b1249000b7eafd5","svTrial","survey",36,575084,"0.0-2.0-34.0","65553732575bb29198a888d7","655655c869e65158ed81bc52",8,"12303","Tokyo_large_sch_1_3.jpg",NA,NA,NA,NA,NA,NA,NA,NA,NA,NA,NA,NA,NA,NA,NA,NA,"[]","middle",1,"pos",1,27,1,2,2,1,2,1,"76201","32","female","man","","latino","","No","",""
"124","/Users/npcamp/GitHub/perceptual-affordance-Lee_Thesis/data/perceptual-affordance-Lee_Thesis_c-undefined_p-564f2da09b1249000b7eafd5_s-655655c869e65158ed81bc52_SESSION_2023-11-16_12h03.10.791.csv","564f2da09b1249000b7eafd5","svTrial","survey",37,592459,"0.0-2.0-35.0","65553732575bb29198a888d7","655655c869e65158ed81bc52",8,"17341","Ishikawa_large_pos_12_1.jpg",NA,NA,NA,NA,NA,NA,NA,NA,NA,NA,NA,NA,NA,NA,NA,NA,"[]","small",2,"sch",12,28,2,2,2,1,2,1,"76201","32","female","man","","latino","","No","",""
"125","/Users/npcamp/GitHub/perceptual-affordance-Lee_Thesis/data/perceptual-affordance-Lee_Thesis_c-undefined_p-564f2da09b1249000b7eafd5_s-655655c869e65158ed81bc52_SESSION_2023-11-16_12h03.10.791.csv","564f2da09b1249000b7eafd5","svTrial","survey",38,605671,"0.0-2.0-36.0","65553732575bb29198a888d7","655655c869e65158ed81bc52",8,"13198","Kanagawa_large_pos_2_3.jpg",NA,NA,NA,NA,NA,NA,NA,NA,NA,NA,NA,NA,NA,NA,NA,NA,"[]","small",1,"pos",2,29,2,2,2,2,2,1,"76201","32","female","man","","latino","","No","",""
"126","/Users/npcamp/GitHub/perceptual-affordance-Lee_Thesis/data/perceptual-affordance-Lee_Thesis_c-undefined_p-564f2da09b1249000b7eafd5_s-655655c869e65158ed81bc52_SESSION_2023-11-16_12h03.10.791.csv","564f2da09b1249000b7eafd5","svTrial","survey",39,617542,"0.0-2.0-37.0","65553732575bb29198a888d7","655655c869e65158ed81bc52",8,"11859","Niigata_middle_pos_4_0.jpg",NA,NA,NA,NA,NA,NA,NA,NA,NA,NA,NA,NA,NA,NA,NA,NA,"[]","small",2,"pos",4,30,1,2,2,1,1,1,"76201","32","female","man","","latino","","No","",""
"127","/Users/npcamp/GitHub/perceptual-affordance-Lee_Thesis/data/perceptual-affordance-Lee_Thesis_c-undefined_p-564f2da09b1249000b7eafd5_s-655655c869e65158ed81bc52_SESSION_2023-11-16_12h03.10.791.csv","564f2da09b1249000b7eafd5","svTrial","survey",40,632497,"0.0-2.0-38.0","65553732575bb29198a888d7","655655c869e65158ed81bc52",8,"14942","Toyama_middle_pos_3_0.jpg",NA,NA,NA,NA,NA,NA,NA,NA,NA,NA,NA,NA,NA,NA,NA,NA,"[]","large",2,"pos",3,31,4,3,4,4,3,1,"76201","32","female","man","","latino","","No","",""
"128","/Users/npcamp/GitHub/perceptual-affordance-Lee_Thesis/data/perceptual-affordance-Lee_Thesis_c-undefined_p-564f2da09b1249000b7eafd5_s-655655c869e65158ed81bc52_SESSION_2023-11-16_12h03.10.791.csv","564f2da09b1249000b7eafd5","svTrial","survey",41,647105,"0.0-2.0-39.0","65553732575bb29198a888d7","655655c869e65158ed81bc52",8,"14599","Toyama_large_pos_2_1.jpg",NA,NA,NA,NA,NA,NA,NA,NA,NA,NA,NA,NA,NA,NA,NA,NA,"[]","large",2,"sch",2,32,3,4,3,4,4,1,"76201","32","female","man","","latino","","No","",""
"129","/Users/npcamp/GitHub/perceptual-affordance-Lee_Thesis/data/perceptual-affordance-Lee_Thesis_c-undefined_p-564f2da09b1249000b7eafd5_s-655655c869e65158ed81bc52_SESSION_2023-11-16_12h03.10.791.csv","564f2da09b1249000b7eafd5","svTrial","survey",42,661272,"0.0-2.0-40.0","65553732575bb29198a888d7","655655c869e65158ed81bc52",8,"14156","Okinawa_small_sch_2_1.jpg",NA,NA,NA,NA,NA,NA,NA,NA,NA,NA,NA,NA,NA,NA,NA,NA,"[]","middle",1,"sch",2,33,1,1,1,3,3,1,"76201","32","female","man","","latino","","No","",""
"130","/Users/npcamp/GitHub/perceptual-affordance-Lee_Thesis/data/perceptual-affordance-Lee_Thesis_c-undefined_p-564f2da09b1249000b7eafd5_s-655655c869e65158ed81bc52_SESSION_2023-11-16_12h03.10.791.csv","564f2da09b1249000b7eafd5","svTrial","survey",43,675446,"0.0-2.0-41.0","65553732575bb29198a888d7","655655c869e65158ed81bc52",8,"14164","Tokyo_large_pos_8_0.jpg",NA,NA,NA,NA,NA,NA,NA,NA,NA,NA,NA,NA,NA,NA,NA,NA,"[]","small",1,"sch",8,34,1,2,1,3,3,1,"76201","32","female","man","","latino","","No","",""
"131","/Users/npcamp/GitHub/perceptual-affordance-Lee_Thesis/data/perceptual-affordance-Lee_Thesis_c-undefined_p-564f2da09b1249000b7eafd5_s-655655c869e65158ed81bc52_SESSION_2023-11-16_12h03.10.791.csv","564f2da09b1249000b7eafd5","svTrial","survey",44,691909,"0.0-2.0-42.0","65553732575bb29198a888d7","655655c869e65158ed81bc52",8,"16456","Toyama_middle_sch_6_2.jpg",NA,NA,NA,NA,NA,NA,NA,NA,NA,NA,NA,NA,NA,NA,NA,NA,"[]","large",2,"pos",6,35,2,3,2,2,2,1,"76201","32","female","man","","latino","","No","",""
"132","/Users/npcamp/GitHub/perceptual-affordance-Lee_Thesis/data/perceptual-affordance-Lee_Thesis_c-undefined_p-564f2da09b1249000b7eafd5_s-655655c869e65158ed81bc52_SESSION_2023-11-16_12h03.10.791.csv","564f2da09b1249000b7eafd5","svTrial","survey",45,700610,"0.0-2.0-43.0","65553732575bb29198a888d7","655655c869e65158ed81bc52",8,"8691","Niigata_large_pos_2_1.jpg",NA,NA,NA,NA,NA,NA,NA,NA,NA,NA,NA,NA,NA,NA,NA,NA,"[]","middle",2,"pos",2,36,NA,NA,NA,NA,NA,1,"76201","32","female","man","","latino","","No","",""
"133","/Users/npcamp/GitHub/perceptual-affordance-Lee_Thesis/data/perceptual-affordance-Lee_Thesis_c-undefined_p-564f2da09b1249000b7eafd5_s-655655c869e65158ed81bc52_SESSION_2023-11-16_12h03.10.791.csv","564f2da09b1249000b7eafd5","svTrial","survey",46,724123,"0.0-2.0-44.0","65553732575bb29198a888d7","655655c869e65158ed81bc52",8,"23507","Ishikawa_middle_pos_8_1.jpg",NA,NA,NA,NA,NA,NA,NA,NA,NA,NA,NA,NA,NA,NA,NA,NA,"[]","small",2,"sch",8,37,3,3,3,4,2,1,"76201","32","female","man","","latino","","No","",""
"134","/Users/npcamp/GitHub/perceptual-affordance-Lee_Thesis/data/perceptual-affordance-Lee_Thesis_c-undefined_p-564f2da09b1249000b7eafd5_s-655655c869e65158ed81bc52_SESSION_2023-11-16_12h03.10.791.csv","564f2da09b1249000b7eafd5","svTrial","survey",47,736838,"0.0-2.0-45.0","65553732575bb29198a888d7","655655c869e65158ed81bc52",8,"12704","Kanagawa_large_pos_11_2.jpg",NA,NA,NA,NA,NA,NA,NA,NA,NA,NA,NA,NA,NA,NA,NA,NA,"[]","large",1,"pos",11,38,2,3,2,3,3,1,"76201","32","female","man","","latino","","No","",""
"135","/Users/npcamp/GitHub/perceptual-affordance-Lee_Thesis/data/perceptual-affordance-Lee_Thesis_c-undefined_p-564f2da09b1249000b7eafd5_s-655655c869e65158ed81bc52_SESSION_2023-11-16_12h03.10.791.csv","564f2da09b1249000b7eafd5","svTrial","survey",48,749682,"0.0-2.0-46.0","65553732575bb29198a888d7","655655c869e65158ed81bc52",8,"12834","Okinawa_middle_pos_7_2.jpg",NA,NA,NA,NA,NA,NA,NA,NA,NA,NA,NA,NA,NA,NA,NA,NA,"[]","middle",1,"sch",7,39,2,1,3,4,3,1,"76201","32","female","man","","latino","","No","",""
"136","/Users/npcamp/GitHub/perceptual-affordance-Lee_Thesis/data/perceptual-affordance-Lee_Thesis_c-undefined_p-564f2da09b1249000b7eafd5_s-655655c869e65158ed81bc52_SESSION_2023-11-16_12h03.10.791.csv","564f2da09b1249000b7eafd5","svTrial","survey",49,765149,"0.0-2.0-47.0","65553732575bb29198a888d7","655655c869e65158ed81bc52",8,"15455","Ishikawa_middle_pos_4_3.jpg",NA,NA,NA,NA,NA,NA,NA,NA,NA,NA,NA,NA,NA,NA,NA,NA,"[]","large",2,"sch",4,40,1,2,2,3,2,1,"76201","32","female","man","","latino","","No","",""
"137","/Users/npcamp/GitHub/perceptual-affordance-Lee_Thesis/data/perceptual-affordance-Lee_Thesis_c-undefined_p-564f2da09b1249000b7eafd5_s-655655c869e65158ed81bc52_SESSION_2023-11-16_12h03.10.791.csv","564f2da09b1249000b7eafd5","svTrial","survey",50,779358,"0.0-2.0-48.0","65553732575bb29198a888d7","655655c869e65158ed81bc52",8,"14199","Ishikawa_large_sch_11_1.jpg",NA,NA,NA,NA,NA,NA,NA,NA,NA,NA,NA,NA,NA,NA,NA,NA,"[]","small",2,"pos",11,41,2,1,3,3,3,1,"76201","32","female","man","","latino","","No","",""
"138","/Users/npcamp/GitHub/perceptual-affordance-Lee_Thesis/data/perceptual-affordance-Lee_Thesis_c-undefined_p-564f2da09b1249000b7eafd5_s-655655c869e65158ed81bc52_SESSION_2023-11-16_12h03.10.791.csv","564f2da09b1249000b7eafd5","svTrial","survey",51,788746,"0.0-2.0-49.0","65553732575bb29198a888d7","655655c869e65158ed81bc52",8,"9379","Tokyo_large_pos_9_3.jpg",NA,NA,NA,NA,NA,NA,NA,NA,NA,NA,NA,NA,NA,NA,NA,NA,"[]","large",1,"pos",9,42,1,1,1,1,1,1,"76201","32","female","man","","latino","","No","",""
"139","/Users/npcamp/GitHub/perceptual-affordance-Lee_Thesis/data/perceptual-affordance-Lee_Thesis_c-undefined_p-564f2da09b1249000b7eafd5_s-655655c869e65158ed81bc52_SESSION_2023-11-16_12h03.10.791.csv","564f2da09b1249000b7eafd5","svTrial","survey",52,798811,"0.0-2.0-50.0","65553732575bb29198a888d7","655655c869e65158ed81bc52",8,"10056","Akita_middle_pos_7_3.jpg",NA,NA,NA,NA,NA,NA,NA,NA,NA,NA,NA,NA,NA,NA,NA,NA,"[]","middle",2,"pos",7,43,1,1,1,1,1,1,"76201","32","female","man","","latino","","No","",""
"140","/Users/npcamp/GitHub/perceptual-affordance-Lee_Thesis/data/perceptual-affordance-Lee_Thesis_c-undefined_p-564f2da09b1249000b7eafd5_s-655655c869e65158ed81bc52_SESSION_2023-11-16_12h03.10.791.csv","564f2da09b1249000b7eafd5","svTrial","survey",53,811757,"0.0-2.0-51.0","65553732575bb29198a888d7","655655c869e65158ed81bc52",8,"12936","Hokkaido_large_pos_7_2.jpg",NA,NA,NA,NA,NA,NA,NA,NA,NA,NA,NA,NA,NA,NA,NA,NA,"[]","middle",1,"sch",7,44,1,2,2,1,2,1,"76201","32","female","man","","latino","","No","",""
"141","/Users/npcamp/GitHub/perceptual-affordance-Lee_Thesis/data/perceptual-affordance-Lee_Thesis_c-undefined_p-564f2da09b1249000b7eafd5_s-655655c869e65158ed81bc52_SESSION_2023-11-16_12h03.10.791.csv","564f2da09b1249000b7eafd5","svTrial","survey",54,825971,"0.0-2.0-52.0","65553732575bb29198a888d7","655655c869e65158ed81bc52",8,"14202","Okinawa_large_sch_10_1.jpg",NA,NA,NA,NA,NA,NA,NA,NA,NA,NA,NA,NA,NA,NA,NA,NA,"[]","large",1,"sch",10,45,3,1,3,4,3,1,"76201","32","female","man","","latino","","No","",""
"142","/Users/npcamp/GitHub/perceptual-affordance-Lee_Thesis/data/perceptual-affordance-Lee_Thesis_c-undefined_p-564f2da09b1249000b7eafd5_s-655655c869e65158ed81bc52_SESSION_2023-11-16_12h03.10.791.csv","564f2da09b1249000b7eafd5","svTrial","survey",55,838953,"0.0-2.0-53.0","65553732575bb29198a888d7","655655c869e65158ed81bc52",8,"12972","Kanagawa_large_pos_6_1.jpg",NA,NA,NA,NA,NA,NA,NA,NA,NA,NA,NA,NA,NA,NA,NA,NA,"[]","small",1,"sch",6,46,1,1,2,2,2,1,"76201","32","female","man","","latino","","No","",""
"143","/Users/npcamp/GitHub/perceptual-affordance-Lee_Thesis/data/perceptual-affordance-Lee_Thesis_c-undefined_p-564f2da09b1249000b7eafd5_s-655655c869e65158ed81bc52_SESSION_2023-11-16_12h03.10.791.csv","564f2da09b1249000b7eafd5","svTrial","survey",56,858747,"0.0-2.0-54.0","65553732575bb29198a888d7","655655c869e65158ed81bc52",8,"19782","Okinawa_middle_sch_5_3.jpg",NA,NA,NA,NA,NA,NA,NA,NA,NA,NA,NA,NA,NA,NA,NA,NA,"[]","small",1,"sch",5,47,2,3,3,2,2,1,"76201","32","female","man","","latino","","No","",""
"144","/Users/npcamp/GitHub/perceptual-affordance-Lee_Thesis/data/perceptual-affordance-Lee_Thesis_c-undefined_p-564f2da09b1249000b7eafd5_s-655655c869e65158ed81bc52_SESSION_2023-11-16_12h03.10.791.csv","564f2da09b1249000b7eafd5","svTrial","survey",57,874902,"0.0-2.0-55.0","65553732575bb29198a888d7","655655c869e65158ed81bc52",8,"16145","Akita_middle_pos_2_0.jpg",NA,NA,NA,NA,NA,NA,NA,NA,NA,NA,NA,NA,NA,NA,NA,NA,"[]","large",2,"sch",2,48,2,2,3,4,2,1,"76201","32","female","man","","latino","","No","",""
"145","/Users/npcamp/GitHub/perceptual-affordance-Lee_Thesis/data/perceptual-affordance-Lee_Thesis_c-undefined_p-57210674951c9b0011d3eaaa_s-65565ba1233bdf494f84975b_SESSION_2023-11-16_12h46.38.941.csv","57210674951c9b0011d3eaaa","svTrial","survey",8,959690,"0.0-2.0-6.0","65553732575bb29198a888d7","65565ba1233bdf494f84975b",3,"39937","Niigata_large_sch_3_3.jpg",NA,NA,NA,NA,NA,NA,NA,NA,NA,NA,NA,NA,NA,NA,NA,NA,"[]","large",2,"sch",3,1,4,NA,3,2,3,1,"60162","59","male","man","","african","","No","",""
"146","/Users/npcamp/GitHub/perceptual-affordance-Lee_Thesis/data/perceptual-affordance-Lee_Thesis_c-undefined_p-57210674951c9b0011d3eaaa_s-65565ba1233bdf494f84975b_SESSION_2023-11-16_12h46.38.941.csv","57210674951c9b0011d3eaaa","svTrial","survey",9,1030716,"0.0-2.0-7.0","65553732575bb29198a888d7","65565ba1233bdf494f84975b",3,"71007","Tokyo_middle_pos_5_1.jpg",NA,NA,NA,NA,NA,NA,NA,NA,NA,NA,NA,NA,NA,NA,NA,NA,"[]","small",1,"sch",5,2,1,4,2,2,1,1,"60162","59","male","man","","african","","No","",""
"147","/Users/npcamp/GitHub/perceptual-affordance-Lee_Thesis/data/perceptual-affordance-Lee_Thesis_c-undefined_p-57210674951c9b0011d3eaaa_s-65565ba1233bdf494f84975b_SESSION_2023-11-16_12h46.38.941.csv","57210674951c9b0011d3eaaa","svTrial","survey",10,1046904,"0.0-2.0-8.0","65553732575bb29198a888d7","65565ba1233bdf494f84975b",3,"16154","Niigata_small_pos_1_1.jpg",NA,NA,NA,NA,NA,NA,NA,NA,NA,NA,NA,NA,NA,NA,NA,NA,"[]","small",2,"pos",1,3,1,1,2,1,1,1,"60162","59","male","man","","african","","No","",""
"148","/Users/npcamp/GitHub/perceptual-affordance-Lee_Thesis/data/perceptual-affordance-Lee_Thesis_c-undefined_p-57210674951c9b0011d3eaaa_s-65565ba1233bdf494f84975b_SESSION_2023-11-16_12h46.38.941.csv","57210674951c9b0011d3eaaa","svTrial","survey",11,1067784,"0.0-2.0-9.0","65553732575bb29198a888d7","65565ba1233bdf494f84975b",3,"20865","Okinawa_middle_pos_4_0.jpg",NA,NA,NA,NA,NA,NA,NA,NA,NA,NA,NA,NA,NA,NA,NA,NA,"[]","small",1,"sch",4,4,1,5,2,1,1,1,"60162","59","male","man","","african","","No","",""
"149","/Users/npcamp/GitHub/perceptual-affordance-Lee_Thesis/data/perceptual-affordance-Lee_Thesis_c-undefined_p-57210674951c9b0011d3eaaa_s-65565ba1233bdf494f84975b_SESSION_2023-11-16_12h46.38.941.csv","57210674951c9b0011d3eaaa","svTrial","survey",12,1090936,"0.0-2.0-10.0","65553732575bb29198a888d7","65565ba1233bdf494f84975b",3,"23138","Niigata_middle_pos_7_0.jpg",NA,NA,NA,NA,NA,NA,NA,NA,NA,NA,NA,NA,NA,NA,NA,NA,"[]","large",2,"sch",7,5,5,5,2,4,4,1,"60162","59","male","man","","african","","No","",""
"150","/Users/npcamp/GitHub/perceptual-affordance-Lee_Thesis/data/perceptual-affordance-Lee_Thesis_c-undefined_p-57210674951c9b0011d3eaaa_s-65565ba1233bdf494f84975b_SESSION_2023-11-16_12h46.38.941.csv","57210674951c9b0011d3eaaa","svTrial","survey",13,1127087,"0.0-2.0-11.0","65553732575bb29198a888d7","65565ba1233bdf494f84975b",3,"36137","Toyama_large_sch_8_0.jpg",NA,NA,NA,NA,NA,NA,NA,NA,NA,NA,NA,NA,NA,NA,NA,NA,"[]","small",2,"pos",8,6,1,4,2,5,4,1,"60162","59","male","man","","african","","No","",""
"151","/Users/npcamp/GitHub/perceptual-affordance-Lee_Thesis/data/perceptual-affordance-Lee_Thesis_c-undefined_p-57210674951c9b0011d3eaaa_s-65565ba1233bdf494f84975b_SESSION_2023-11-16_12h46.38.941.csv","57210674951c9b0011d3eaaa","svTrial","survey",14,1151926,"0.0-2.0-12.0","65553732575bb29198a888d7","65565ba1233bdf494f84975b",3,"24830","Kanagawa_large_pos_7_1.jpg",NA,NA,NA,NA,NA,NA,NA,NA,NA,NA,NA,NA,NA,NA,NA,NA,"[]","small",1,"pos",7,7,5,4,4,5,4,1,"60162","59","male","man","","african","","No","",""
"152","/Users/npcamp/GitHub/perceptual-affordance-Lee_Thesis/data/perceptual-affordance-Lee_Thesis_c-undefined_p-57210674951c9b0011d3eaaa_s-65565ba1233bdf494f84975b_SESSION_2023-11-16_12h46.38.941.csv","57210674951c9b0011d3eaaa","svTrial","survey",15,1178859,"0.0-2.0-13.0","65553732575bb29198a888d7","65565ba1233bdf494f84975b",3,"26922","Okinawa_large_pos_1_3.jpg",NA,NA,NA,NA,NA,NA,NA,NA,NA,NA,NA,NA,NA,NA,NA,NA,"[]","large",1,"sch",1,8,5,5,4,5,4,1,"60162","59","male","man","","african","","No","",""
"153","/Users/npcamp/GitHub/perceptual-affordance-Lee_Thesis/data/perceptual-affordance-Lee_Thesis_c-undefined_p-57210674951c9b0011d3eaaa_s-65565ba1233bdf494f84975b_SESSION_2023-11-16_12h46.38.941.csv","57210674951c9b0011d3eaaa","svTrial","survey",16,1190741,"0.0-2.0-14.0","65553732575bb29198a888d7","65565ba1233bdf494f84975b",3,"11868","Hokkaido_middle_sch_1_2.jpg",NA,NA,NA,NA,NA,NA,NA,NA,NA,NA,NA,NA,NA,NA,NA,NA,"[]","small",1,"sch",1,9,1,1,1,1,1,1,"60162","59","male","man","","african","","No","",""
"154","/Users/npcamp/GitHub/perceptual-affordance-Lee_Thesis/data/perceptual-affordance-Lee_Thesis_c-undefined_p-57210674951c9b0011d3eaaa_s-65565ba1233bdf494f84975b_SESSION_2023-11-16_12h46.38.941.csv","57210674951c9b0011d3eaaa","svTrial","survey",17,1217743,"0.0-2.0-15.0","65553732575bb29198a888d7","65565ba1233bdf494f84975b",3,"26985","Hokkaido_middle_pos_1_3.jpg",NA,NA,NA,NA,NA,NA,NA,NA,NA,NA,NA,NA,NA,NA,NA,NA,"[]","small",1,"sch",1,10,4,1,3,1,4,1,"60162","59","male","man","","african","","No","",""
"155","/Users/npcamp/GitHub/perceptual-affordance-Lee_Thesis/data/perceptual-affordance-Lee_Thesis_c-undefined_p-57210674951c9b0011d3eaaa_s-65565ba1233bdf494f84975b_SESSION_2023-11-16_12h46.38.941.csv","57210674951c9b0011d3eaaa","svTrial","survey",18,1237031,"0.0-2.0-16.0","65553732575bb29198a888d7","65565ba1233bdf494f84975b",3,"19276","Akita_large_pos_9_0.jpg",NA,NA,NA,NA,NA,NA,NA,NA,NA,NA,NA,NA,NA,NA,NA,NA,"[]","small",2,"pos",9,11,5,5,4,4,4,1,"60162","59","male","man","","african","","No","",""
"156","/Users/npcamp/GitHub/perceptual-affordance-Lee_Thesis/data/perceptual-affordance-Lee_Thesis_c-undefined_p-57210674951c9b0011d3eaaa_s-65565ba1233bdf494f84975b_SESSION_2023-11-16_12h46.38.941.csv","57210674951c9b0011d3eaaa","svTrial","survey",19,1252528,"0.0-2.0-17.0","65553732575bb29198a888d7","65565ba1233bdf494f84975b",3,"15486","Niigata_middle_pos_1_1.jpg",NA,NA,NA,NA,NA,NA,NA,NA,NA,NA,NA,NA,NA,NA,NA,NA,"[]","middle",2,"pos",1,12,1,1,1,1,1,1,"60162","59","male","man","","african","","No","",""
"157","/Users/npcamp/GitHub/perceptual-affordance-Lee_Thesis/data/perceptual-affordance-Lee_Thesis_c-undefined_p-57210674951c9b0011d3eaaa_s-65565ba1233bdf494f84975b_SESSION_2023-11-16_12h46.38.941.csv","57210674951c9b0011d3eaaa","svTrial","survey",20,1275806,"0.0-2.0-18.0","65553732575bb29198a888d7","65565ba1233bdf494f84975b",3,"23268","Akita_middle_sch_6_2.jpg",NA,NA,NA,NA,NA,NA,NA,NA,NA,NA,NA,NA,NA,NA,NA,NA,"[]","small",2,"sch",6,13,1,1,1,1,2,1,"60162","59","male","man","","african","","No","",""
"158","/Users/npcamp/GitHub/perceptual-affordance-Lee_Thesis/data/perceptual-affordance-Lee_Thesis_c-undefined_p-57210674951c9b0011d3eaaa_s-65565ba1233bdf494f84975b_SESSION_2023-11-16_12h46.38.941.csv","57210674951c9b0011d3eaaa","svTrial","survey",21,1293774,"0.0-2.0-19.0","65553732575bb29198a888d7","65565ba1233bdf494f84975b",3,"17956","Akita_large_sch_1_0.jpg",NA,NA,NA,NA,NA,NA,NA,NA,NA,NA,NA,NA,NA,NA,NA,NA,"[]","small",2,"pos",1,14,5,4,3,5,4,1,"60162","59","male","man","","african","","No","",""
"159","/Users/npcamp/GitHub/perceptual-affordance-Lee_Thesis/data/perceptual-affordance-Lee_Thesis_c-undefined_p-57210674951c9b0011d3eaaa_s-65565ba1233bdf494f84975b_SESSION_2023-11-16_12h46.38.941.csv","57210674951c9b0011d3eaaa","svTrial","survey",22,1307454,"0.0-2.0-20.0","65553732575bb29198a888d7","65565ba1233bdf494f84975b",3,"13668","Toyama_small_sch_3_3.jpg",NA,NA,NA,NA,NA,NA,NA,NA,NA,NA,NA,NA,NA,NA,NA,NA,"[]","large",2,"pos",3,15,5,5,4,4,5,1,"60162","59","male","man","","african","","No","",""
"160","/Users/npcamp/GitHub/perceptual-affordance-Lee_Thesis/data/perceptual-affordance-Lee_Thesis_c-undefined_p-57210674951c9b0011d3eaaa_s-65565ba1233bdf494f84975b_SESSION_2023-11-16_12h46.38.941.csv","57210674951c9b0011d3eaaa","svTrial","survey",23,1327879,"0.0-2.0-21.0","65553732575bb29198a888d7","65565ba1233bdf494f84975b",3,"20412","Toyama_large_pos_12_2.jpg",NA,NA,NA,NA,NA,NA,NA,NA,NA,NA,NA,NA,NA,NA,NA,NA,"[]","large",2,"sch",12,16,1,4,3,1,1,1,"60162","59","male","man","","african","","No","",""
"161","/Users/npcamp/GitHub/perceptual-affordance-Lee_Thesis/data/perceptual-affordance-Lee_Thesis_c-undefined_p-57210674951c9b0011d3eaaa_s-65565ba1233bdf494f84975b_SESSION_2023-11-16_12h46.38.941.csv","57210674951c9b0011d3eaaa","svTrial","survey",24,1348111,"0.0-2.0-22.0","65553732575bb29198a888d7","65565ba1233bdf494f84975b",3,"20222","Akita_large_sch_7_2.jpg",NA,NA,NA,NA,NA,NA,NA,NA,NA,NA,NA,NA,NA,NA,NA,NA,"[]","large",2,"sch",7,17,5,4,4,5,4,1,"60162","59","male","man","","african","","No","",""
"162","/Users/npcamp/GitHub/perceptual-affordance-Lee_Thesis/data/perceptual-affordance-Lee_Thesis_c-undefined_p-57210674951c9b0011d3eaaa_s-65565ba1233bdf494f84975b_SESSION_2023-11-16_12h46.38.941.csv","57210674951c9b0011d3eaaa","svTrial","survey",25,1361327,"0.0-2.0-23.0","65553732575bb29198a888d7","65565ba1233bdf494f84975b",3,"13205","Okinawa_large_sch_2_3.jpg",NA,NA,NA,NA,NA,NA,NA,NA,NA,NA,NA,NA,NA,NA,NA,NA,"[]","small",1,"sch",2,18,5,4,4,4,4,1,"60162","59","male","man","","african","","No","",""
"163","/Users/npcamp/GitHub/perceptual-affordance-Lee_Thesis/data/perceptual-affordance-Lee_Thesis_c-undefined_p-57210674951c9b0011d3eaaa_s-65565ba1233bdf494f84975b_SESSION_2023-11-16_12h46.38.941.csv","57210674951c9b0011d3eaaa","svTrial","survey",26,1388302,"0.0-2.0-24.0","65553732575bb29198a888d7","65565ba1233bdf494f84975b",3,"26963","Kanagawa_middle_sch_1_3.jpg",NA,NA,NA,NA,NA,NA,NA,NA,NA,NA,NA,NA,NA,NA,NA,NA,"[]","small",1,"sch",1,19,5,3,3,3,3,1,"60162","59","male","man","","african","","No","",""
"164","/Users/npcamp/GitHub/perceptual-affordance-Lee_Thesis/data/perceptual-affordance-Lee_Thesis_c-undefined_p-57210674951c9b0011d3eaaa_s-65565ba1233bdf494f84975b_SESSION_2023-11-16_12h46.38.941.csv","57210674951c9b0011d3eaaa","svTrial","survey",27,1403335,"0.0-2.0-25.0","65553732575bb29198a888d7","65565ba1233bdf494f84975b",3,"15022","Toyama_large_pos_5_1.jpg",NA,NA,NA,NA,NA,NA,NA,NA,NA,NA,NA,NA,NA,NA,NA,NA,"[]","small",2,"pos",5,20,5,4,3,4,4,1,"60162","59","male","man","","african","","No","",""
"165","/Users/npcamp/GitHub/perceptual-affordance-Lee_Thesis/data/perceptual-affordance-Lee_Thesis_c-undefined_p-57210674951c9b0011d3eaaa_s-65565ba1233bdf494f84975b_SESSION_2023-11-16_12h46.38.941.csv","57210674951c9b0011d3eaaa","svTrial","survey",28,1421630,"0.0-2.0-26.0","65553732575bb29198a888d7","65565ba1233bdf494f84975b",3,"18284","Tokyo_small_sch_4_0.jpg",NA,NA,NA,NA,NA,NA,NA,NA,NA,NA,NA,NA,NA,NA,NA,NA,"[]","large",1,"pos",4,21,NA,2,2,1,1,1,"60162","59","male","man","","african","","No","",""
"166","/Users/npcamp/GitHub/perceptual-affordance-Lee_Thesis/data/perceptual-affordance-Lee_Thesis_c-undefined_p-57210674951c9b0011d3eaaa_s-65565ba1233bdf494f84975b_SESSION_2023-11-16_12h46.38.941.csv","57210674951c9b0011d3eaaa","svTrial","survey",29,1436478,"0.0-2.0-27.0","65553732575bb29198a888d7","65565ba1233bdf494f84975b",3,"14836","Ishikawa_large_pos_6_1.jpg",NA,NA,NA,NA,NA,NA,NA,NA,NA,NA,NA,NA,NA,NA,NA,NA,"[]","middle",2,"pos",6,22,5,3,2,3,3,1,"60162","59","male","man","","african","","No","",""
"167","/Users/npcamp/GitHub/perceptual-affordance-Lee_Thesis/data/perceptual-affordance-Lee_Thesis_c-undefined_p-57210674951c9b0011d3eaaa_s-65565ba1233bdf494f84975b_SESSION_2023-11-16_12h46.38.941.csv","57210674951c9b0011d3eaaa","svTrial","survey",30,1455085,"0.0-2.0-28.0","65553732575bb29198a888d7","65565ba1233bdf494f84975b",3,"18597","Ishikawa_large_pos_3_1.jpg",NA,NA,NA,NA,NA,NA,NA,NA,NA,NA,NA,NA,NA,NA,NA,NA,"[]","large",2,"pos",3,23,3,3,2,3,2,1,"60162","59","male","man","","african","","No","",""
"168","/Users/npcamp/GitHub/perceptual-affordance-Lee_Thesis/data/perceptual-affordance-Lee_Thesis_c-undefined_p-57210674951c9b0011d3eaaa_s-65565ba1233bdf494f84975b_SESSION_2023-11-16_12h46.38.941.csv","57210674951c9b0011d3eaaa","svTrial","survey",31,1473599,"0.0-2.0-29.0","65553732575bb29198a888d7","65565ba1233bdf494f84975b",3,"18503","Hokkaido_large_pos_4_2.jpg",NA,NA,NA,NA,NA,NA,NA,NA,NA,NA,NA,NA,NA,NA,NA,NA,"[]","middle",1,"sch",4,24,3,4,3,3,3,1,"60162","59","male","man","","african","","No","",""
"169","/Users/npcamp/GitHub/perceptual-affordance-Lee_Thesis/data/perceptual-affordance-Lee_Thesis_c-undefined_p-57210674951c9b0011d3eaaa_s-65565ba1233bdf494f84975b_SESSION_2023-11-16_12h46.38.941.csv","57210674951c9b0011d3eaaa","svTrial","survey",33,1514621,"0.0-2.0-31.0","65553732575bb29198a888d7","65565ba1233bdf494f84975b",3,"25231","Hokkaido_middle_sch_6_1.jpg",NA,NA,NA,NA,NA,NA,NA,NA,NA,NA,NA,NA,NA,NA,NA,NA,"[]","small",1,"sch",6,25,4,4,2,3,2,1,"60162","59","male","man","","african","","No","",""
"170","/Users/npcamp/GitHub/perceptual-affordance-Lee_Thesis/data/perceptual-affordance-Lee_Thesis_c-undefined_p-57210674951c9b0011d3eaaa_s-65565ba1233bdf494f84975b_SESSION_2023-11-16_12h46.38.941.csv","57210674951c9b0011d3eaaa","svTrial","survey",34,1530182,"0.0-2.0-32.0","65553732575bb29198a888d7","65565ba1233bdf494f84975b",3,"15548","Ishikawa_large_pos_7_0.jpg",NA,NA,NA,NA,NA,NA,NA,NA,NA,NA,NA,NA,NA,NA,NA,NA,"[]","large",2,"sch",7,26,4,3,3,3,3,1,"60162","59","male","man","","african","","No","",""
"171","/Users/npcamp/GitHub/perceptual-affordance-Lee_Thesis/data/perceptual-affordance-Lee_Thesis_c-undefined_p-57210674951c9b0011d3eaaa_s-65565ba1233bdf494f84975b_SESSION_2023-11-16_12h46.38.941.csv","57210674951c9b0011d3eaaa","svTrial","survey",35,1549998,"0.0-2.0-33.0","65553732575bb29198a888d7","65565ba1233bdf494f84975b",3,"19806","Toyama_middle_pos_1_2.jpg",NA,NA,NA,NA,NA,NA,NA,NA,NA,NA,NA,NA,NA,NA,NA,NA,"[]","middle",2,"pos",1,27,4,3,3,3,3,1,"60162","59","male","man","","african","","No","",""
"172","/Users/npcamp/GitHub/perceptual-affordance-Lee_Thesis/data/perceptual-affordance-Lee_Thesis_c-undefined_p-57210674951c9b0011d3eaaa_s-65565ba1233bdf494f84975b_SESSION_2023-11-16_12h46.38.941.csv","57210674951c9b0011d3eaaa","svTrial","survey",36,1565773,"0.0-2.0-34.0","65553732575bb29198a888d7","65565ba1233bdf494f84975b",3,"15763","Hokkaido_large_sch_3_1.jpg",NA,NA,NA,NA,NA,NA,NA,NA,NA,NA,NA,NA,NA,NA,NA,NA,"[]","small",1,"sch",3,28,3,2,2,2,3,1,"60162","59","male","man","","african","","No","",""
"173","/Users/npcamp/GitHub/perceptual-affordance-Lee_Thesis/data/perceptual-affordance-Lee_Thesis_c-undefined_p-57210674951c9b0011d3eaaa_s-65565ba1233bdf494f84975b_SESSION_2023-11-16_12h46.38.941.csv","57210674951c9b0011d3eaaa","svTrial","survey",37,1578959,"0.0-2.0-35.0","65553732575bb29198a888d7","65565ba1233bdf494f84975b",3,"13175","Kanagawa_large_pos_4_3.jpg",NA,NA,NA,NA,NA,NA,NA,NA,NA,NA,NA,NA,NA,NA,NA,NA,"[]","small",1,"pos",4,29,3,3,3,2,3,1,"60162","59","male","man","","african","","No","",""
"174","/Users/npcamp/GitHub/perceptual-affordance-Lee_Thesis/data/perceptual-affordance-Lee_Thesis_c-undefined_p-57210674951c9b0011d3eaaa_s-65565ba1233bdf494f84975b_SESSION_2023-11-16_12h46.38.941.csv","57210674951c9b0011d3eaaa","svTrial","survey",38,1594557,"0.0-2.0-36.0","65553732575bb29198a888d7","65565ba1233bdf494f84975b",3,"15589","Niigata_large_pos_4_1.jpg",NA,NA,NA,NA,NA,NA,NA,NA,NA,NA,NA,NA,NA,NA,NA,NA,"[]","middle",2,"pos",4,30,5,3,3,3,3,1,"60162","59","male","man","","african","","No","",""
"175","/Users/npcamp/GitHub/perceptual-affordance-Lee_Thesis/data/perceptual-affordance-Lee_Thesis_c-undefined_p-57210674951c9b0011d3eaaa_s-65565ba1233bdf494f84975b_SESSION_2023-11-16_12h46.38.941.csv","57210674951c9b0011d3eaaa","svTrial","survey",39,1615165,"0.0-2.0-37.0","65553732575bb29198a888d7","65565ba1233bdf494f84975b",3,"20597","Kanagawa_middle_pos_2_2.jpg",NA,NA,NA,NA,NA,NA,NA,NA,NA,NA,NA,NA,NA,NA,NA,NA,"[]","small",1,"pos",2,31,4,3,3,3,4,1,"60162","59","male","man","","african","","No","",""
"176","/Users/npcamp/GitHub/perceptual-affordance-Lee_Thesis/data/perceptual-affordance-Lee_Thesis_c-undefined_p-57210674951c9b0011d3eaaa_s-65565ba1233bdf494f84975b_SESSION_2023-11-16_12h46.38.941.csv","57210674951c9b0011d3eaaa","svTrial","survey",41,1683712,"0.0-2.0-39.0","65553732575bb29198a888d7","65565ba1233bdf494f84975b",3,"53716","Hokkaido_large_sch_11_3.jpg",NA,NA,NA,NA,NA,NA,NA,NA,NA,NA,NA,NA,NA,NA,NA,NA,"[]","large",1,"sch",11,32,4,3,2,3,4,1,"60162","59","male","man","","african","","No","",""
"177","/Users/npcamp/GitHub/perceptual-affordance-Lee_Thesis/data/perceptual-affordance-Lee_Thesis_c-undefined_p-57210674951c9b0011d3eaaa_s-65565ba1233bdf494f84975b_SESSION_2023-11-16_12h46.38.941.csv","57210674951c9b0011d3eaaa","svTrial","survey",42,1699005,"0.0-2.0-40.0","65553732575bb29198a888d7","65565ba1233bdf494f84975b",3,"15282","Kanagawa_small_pos_1_2.jpg",NA,NA,NA,NA,NA,NA,NA,NA,NA,NA,NA,NA,NA,NA,NA,NA,"[]","middle",1,"sch",1,33,3,4,4,3,3,1,"60162","59","male","man","","african","","No","",""
"178","/Users/npcamp/GitHub/perceptual-affordance-Lee_Thesis/data/perceptual-affordance-Lee_Thesis_c-undefined_p-57210674951c9b0011d3eaaa_s-65565ba1233bdf494f84975b_SESSION_2023-11-16_12h46.38.941.csv","57210674951c9b0011d3eaaa","svTrial","survey",43,1722317,"0.0-2.0-41.0","65553732575bb29198a888d7","65565ba1233bdf494f84975b",3,"23300","Kanagawa_middle_sch_2_1.jpg",NA,NA,NA,NA,NA,NA,NA,NA,NA,NA,NA,NA,NA,NA,NA,NA,"[]","large",1,"sch",2,34,5,4,3,3,3,1,"60162","59","male","man","","african","","No","",""
"179","/Users/npcamp/GitHub/perceptual-affordance-Lee_Thesis/data/perceptual-affordance-Lee_Thesis_c-undefined_p-57210674951c9b0011d3eaaa_s-65565ba1233bdf494f84975b_SESSION_2023-11-16_12h46.38.941.csv","57210674951c9b0011d3eaaa","svTrial","survey",44,1757380,"0.0-2.0-42.0","65553732575bb29198a888d7","65565ba1233bdf494f84975b",3,"35054","Hokkaido_middle_sch_2_0.jpg",NA,NA,NA,NA,NA,NA,NA,NA,NA,NA,NA,NA,NA,NA,NA,NA,"[]","small",1,"pos",2,35,4,4,4,3,3,1,"60162","59","male","man","","african","","No","",""
"180","/Users/npcamp/GitHub/perceptual-affordance-Lee_Thesis/data/perceptual-affordance-Lee_Thesis_c-undefined_p-57210674951c9b0011d3eaaa_s-65565ba1233bdf494f84975b_SESSION_2023-11-16_12h46.38.941.csv","57210674951c9b0011d3eaaa","svTrial","survey",45,1769278,"0.0-2.0-43.0","65553732575bb29198a888d7","65565ba1233bdf494f84975b",3,"11886","Kanagawa_large_sch_11_0.jpg",NA,NA,NA,NA,NA,NA,NA,NA,NA,NA,NA,NA,NA,NA,NA,NA,"[]","large",1,"sch",11,36,5,3,3,3,3,1,"60162","59","male","man","","african","","No","",""
"181","/Users/npcamp/GitHub/perceptual-affordance-Lee_Thesis/data/perceptual-affordance-Lee_Thesis_c-undefined_p-57210674951c9b0011d3eaaa_s-65565ba1233bdf494f84975b_SESSION_2023-11-16_12h46.38.941.csv","57210674951c9b0011d3eaaa","svTrial","survey",46,1787268,"0.0-2.0-44.0","65553732575bb29198a888d7","65565ba1233bdf494f84975b",3,"17980","Hokkaido_large_sch_4_1.jpg",NA,NA,NA,NA,NA,NA,NA,NA,NA,NA,NA,NA,NA,NA,NA,NA,"[]","small",1,"sch",4,37,4,3,3,4,3,1,"60162","59","male","man","","african","","No","",""
"182","/Users/npcamp/GitHub/perceptual-affordance-Lee_Thesis/data/perceptual-affordance-Lee_Thesis_c-undefined_p-57210674951c9b0011d3eaaa_s-65565ba1233bdf494f84975b_SESSION_2023-11-16_12h46.38.941.csv","57210674951c9b0011d3eaaa","svTrial","survey",47,1799909,"0.0-2.0-45.0","65553732575bb29198a888d7","65565ba1233bdf494f84975b",3,"12629","Niigata_large_pos_9_3.jpg",NA,NA,NA,NA,NA,NA,NA,NA,NA,NA,NA,NA,NA,NA,NA,NA,"[]","small",2,"sch",9,38,1,2,2,2,2,1,"60162","59","male","man","","african","","No","",""
"183","/Users/npcamp/GitHub/perceptual-affordance-Lee_Thesis/data/perceptual-affordance-Lee_Thesis_c-undefined_p-57210674951c9b0011d3eaaa_s-65565ba1233bdf494f84975b_SESSION_2023-11-16_12h46.38.941.csv","57210674951c9b0011d3eaaa","svTrial","survey",48,1833341,"0.0-2.0-46.0","65553732575bb29198a888d7","65565ba1233bdf494f84975b",3,"33421","Akita_small_sch_1_3.jpg",NA,NA,NA,NA,NA,NA,NA,NA,NA,NA,NA,NA,NA,NA,NA,NA,"[]","middle",2,"sch",1,39,5,3,3,3,3,1,"60162","59","male","man","","african","","No","",""
"184","/Users/npcamp/GitHub/perceptual-affordance-Lee_Thesis/data/perceptual-affordance-Lee_Thesis_c-undefined_p-57210674951c9b0011d3eaaa_s-65565ba1233bdf494f84975b_SESSION_2023-11-16_12h46.38.941.csv","57210674951c9b0011d3eaaa","svTrial","survey",49,1848108,"0.0-2.0-47.0","65553732575bb29198a888d7","65565ba1233bdf494f84975b",3,"14755","Toyama_large_sch_4_1.jpg",NA,NA,NA,NA,NA,NA,NA,NA,NA,NA,NA,NA,NA,NA,NA,NA,"[]","small",2,"sch",4,40,1,1,1,1,1,1,"60162","59","male","man","","african","","No","",""
"185","/Users/npcamp/GitHub/perceptual-affordance-Lee_Thesis/data/perceptual-affordance-Lee_Thesis_c-undefined_p-57210674951c9b0011d3eaaa_s-65565ba1233bdf494f84975b_SESSION_2023-11-16_12h46.38.941.csv","57210674951c9b0011d3eaaa","svTrial","survey",50,1870581,"0.0-2.0-48.0","65553732575bb29198a888d7","65565ba1233bdf494f84975b",3,"22463","Ishikawa_large_sch_6_3.jpg",NA,NA,NA,NA,NA,NA,NA,NA,NA,NA,NA,NA,NA,NA,NA,NA,"[]","small",2,"sch",6,41,3,3,2,2,1,1,"60162","59","male","man","","african","","No","",""
"186","/Users/npcamp/GitHub/perceptual-affordance-Lee_Thesis/data/perceptual-affordance-Lee_Thesis_c-undefined_p-57210674951c9b0011d3eaaa_s-65565ba1233bdf494f84975b_SESSION_2023-11-16_12h46.38.941.csv","57210674951c9b0011d3eaaa","svTrial","survey",51,1887203,"0.0-2.0-49.0","65553732575bb29198a888d7","65565ba1233bdf494f84975b",3,"16621","Akita_large_sch_10_3.jpg",NA,NA,NA,NA,NA,NA,NA,NA,NA,NA,NA,NA,NA,NA,NA,NA,"[]","small",2,"pos",10,42,5,4,3,3,3,1,"60162","59","male","man","","african","","No","",""
"187","/Users/npcamp/GitHub/perceptual-affordance-Lee_Thesis/data/perceptual-affordance-Lee_Thesis_c-undefined_p-57210674951c9b0011d3eaaa_s-65565ba1233bdf494f84975b_SESSION_2023-11-16_12h46.38.941.csv","57210674951c9b0011d3eaaa","svTrial","survey",52,1899442,"0.0-2.0-50.0","65553732575bb29198a888d7","65565ba1233bdf494f84975b",3,"12228","Ishikawa_large_pos_5_3.jpg",NA,NA,NA,NA,NA,NA,NA,NA,NA,NA,NA,NA,NA,NA,NA,NA,"[]","large",2,"pos",5,43,5,4,4,3,4,1,"60162","59","male","man","","african","","No","",""
"188","/Users/npcamp/GitHub/perceptual-affordance-Lee_Thesis/data/perceptual-affordance-Lee_Thesis_c-undefined_p-57210674951c9b0011d3eaaa_s-65565ba1233bdf494f84975b_SESSION_2023-11-16_12h46.38.941.csv","57210674951c9b0011d3eaaa","svTrial","survey",53,1913043,"0.0-2.0-51.0","65553732575bb29198a888d7","65565ba1233bdf494f84975b",3,"13591","Tokyo_small_sch_1_2.jpg",NA,NA,NA,NA,NA,NA,NA,NA,NA,NA,NA,NA,NA,NA,NA,NA,"[]","small",1,"sch",1,44,4,3,3,3,4,1,"60162","59","male","man","","african","","No","",""
"189","/Users/npcamp/GitHub/perceptual-affordance-Lee_Thesis/data/perceptual-affordance-Lee_Thesis_c-undefined_p-57210674951c9b0011d3eaaa_s-65565ba1233bdf494f84975b_SESSION_2023-11-16_12h46.38.941.csv","57210674951c9b0011d3eaaa","svTrial","survey",54,1926747,"0.0-2.0-52.0","65553732575bb29198a888d7","65565ba1233bdf494f84975b",3,"13692","Okinawa_middle_pos_6_2.jpg",NA,NA,NA,NA,NA,NA,NA,NA,NA,NA,NA,NA,NA,NA,NA,NA,"[]","large",1,"pos",6,45,3,3,3,4,3,1,"60162","59","male","man","","african","","No","",""
"190","/Users/npcamp/GitHub/perceptual-affordance-Lee_Thesis/data/perceptual-affordance-Lee_Thesis_c-undefined_p-57210674951c9b0011d3eaaa_s-65565ba1233bdf494f84975b_SESSION_2023-11-16_12h46.38.941.csv","57210674951c9b0011d3eaaa","svTrial","survey",55,1940236,"0.0-2.0-53.0","65553732575bb29198a888d7","65565ba1233bdf494f84975b",3,"13478","Ishikawa_middle_pos_6_3.jpg",NA,NA,NA,NA,NA,NA,NA,NA,NA,NA,NA,NA,NA,NA,NA,NA,"[]","middle",2,"pos",6,46,4,3,3,3,3,1,"60162","59","male","man","","african","","No","",""
"191","/Users/npcamp/GitHub/perceptual-affordance-Lee_Thesis/data/perceptual-affordance-Lee_Thesis_c-undefined_p-57210674951c9b0011d3eaaa_s-65565ba1233bdf494f84975b_SESSION_2023-11-16_12h46.38.941.csv","57210674951c9b0011d3eaaa","svTrial","survey",56,1952323,"0.0-2.0-54.0","65553732575bb29198a888d7","65565ba1233bdf494f84975b",3,"12067","Okinawa_small_pos_3_0.jpg",NA,NA,NA,NA,NA,NA,NA,NA,NA,NA,NA,NA,NA,NA,NA,NA,"[]","large",1,"pos",3,47,4,3,3,3,3,1,"60162","59","male","man","","african","","No","",""
"192","/Users/npcamp/GitHub/perceptual-affordance-Lee_Thesis/data/perceptual-affordance-Lee_Thesis_c-undefined_p-57210674951c9b0011d3eaaa_s-65565ba1233bdf494f84975b_SESSION_2023-11-16_12h46.38.941.csv","57210674951c9b0011d3eaaa","svTrial","survey",57,1965781,"0.0-2.0-55.0","65553732575bb29198a888d7","65565ba1233bdf494f84975b",3,"13447","Kanagawa_middle_pos_6_3.jpg",NA,NA,NA,NA,NA,NA,NA,NA,NA,NA,NA,NA,NA,NA,NA,NA,"[]","large",1,"sch",6,48,5,3,3,3,3,1,"60162","59","male","man","","african","","No","",""
"193","/Users/npcamp/GitHub/perceptual-affordance-Lee_Thesis/data/perceptual-affordance-Lee_Thesis_c-undefined_p-5783e984160201000103ece2_s-65565c3c7a55399035193630_SESSION_2023-11-16_12h27.57.61.csv","5783e984160201000103ece2","svTrial","survey",8,88589,"0.0-2.0-6.0","65553732575bb29198a888d7","65565c3c7a55399035193630",8,"22776","Ishikawa_large_pos_12_3.jpg",NA,NA,NA,NA,NA,NA,NA,NA,NA,NA,NA,NA,NA,NA,NA,NA,"[]","small",2,"sch",12,1,4,3,4,3,3,1,"55435","43","male","man","","caucasian","","No","",""
"194","/Users/npcamp/GitHub/perceptual-affordance-Lee_Thesis/data/perceptual-affordance-Lee_Thesis_c-undefined_p-5783e984160201000103ece2_s-65565c3c7a55399035193630_SESSION_2023-11-16_12h27.57.61.csv","5783e984160201000103ece2","svTrial","survey",9,103478,"0.0-2.0-7.0","65553732575bb29198a888d7","65565c3c7a55399035193630",8,"14856","Ishikawa_middle_pos_4_1.jpg",NA,NA,NA,NA,NA,NA,NA,NA,NA,NA,NA,NA,NA,NA,NA,NA,"[]","large",2,"sch",4,2,3,3,4,2,2,1,"55435","43","male","man","","caucasian","","No","",""
"195","/Users/npcamp/GitHub/perceptual-affordance-Lee_Thesis/data/perceptual-affordance-Lee_Thesis_c-undefined_p-5783e984160201000103ece2_s-65565c3c7a55399035193630_SESSION_2023-11-16_12h27.57.61.csv","5783e984160201000103ece2","svTrial","survey",10,120056,"0.0-2.0-8.0","65553732575bb29198a888d7","65565c3c7a55399035193630",8,"16561","Akita_middle_pos_3_1.jpg",NA,NA,NA,NA,NA,NA,NA,NA,NA,NA,NA,NA,NA,NA,NA,NA,"[]","middle",2,"pos",3,3,2,2,3,2,2,1,"55435","43","male","man","","caucasian","","No","",""
"196","/Users/npcamp/GitHub/perceptual-affordance-Lee_Thesis/data/perceptual-affordance-Lee_Thesis_c-undefined_p-5783e984160201000103ece2_s-65565c3c7a55399035193630_SESSION_2023-11-16_12h27.57.61.csv","5783e984160201000103ece2","svTrial","survey",11,133445,"0.0-2.0-9.0","65553732575bb29198a888d7","65565c3c7a55399035193630",8,"13377","Hokkaido_large_pos_2_3.jpg",NA,NA,NA,NA,NA,NA,NA,NA,NA,NA,NA,NA,NA,NA,NA,NA,"[]","small",1,"sch",2,4,4,4,4,4,4,1,"55435","43","male","man","","caucasian","","No","",""
