"task","trial_type","trial_index","time_elapsed","internal_node_id","subject_id","study_id","session_id","group","rt","stimulus","response","width","height","webaudio","browser","browser_version","mobile","os","fullscreen","vsync_rate","webcam","microphone","success","timeout","failed_images","failed_audio","failed_video","accuracy","name","place_id","lat","lng","culture","loc1","loc2","loct","address","loc_id_prev","angle","loc_id"
"pavlovia-init","pavlovia","0","1192","0.0-0.0","58064d91f25c440001678a10","626166b218b78fee4e9d8d4c","6261856eb66cfb6a3c5bc5b4","8","","","","","","","","","","","","","","","","","","","","","","","","","","","","","","","",""
"consent","html-button-response","1","12580","0.0-1.0","58064d91f25c440001678a10","626166b218b78fee4e9d8d4c","6261856eb66cfb6a3c5bc5b4","8","11387","
        <div style=""font-size: 80%; max-width:700px"">
            <h2>Informed Consent</h2><br>
        
            <div style=""text-align: left"">
            <h3>Streetscape Perceptions</h3>
            <b>HUM00189138</b>
            <br><hr>
        
            <h4>DESCRIPTION</h4>
            <p>
                In this study, you will view Google Street View images. You will then answer questions about your impressions of the streetscapes presented in those images.
            </p><br>
        
            <h4>TIME INVOLVEMENT</h4>
            <p>Your participation will take approximately 30 minutes.</p><br>
        
            <h4>RISKS AND BENEFITS</h4>
            <p>
                The risks associated with this study are minimal. The benefits which may reasonably be expected to result from this study are none.  We cannot and do not guarantee or promise that you will receive any benefits from this study. 
            </p><br>
        
            <h4>PAYMENTS</h4>
            <p>You will be paid <b>$5.00</b> for your participation.</p><br>
        
            <h4>SUBJECT'S RIGHTS</h4>
            <p>
                If you have read this form and have decided to participate in this project, please understand your participation is voluntary and you have the right to withdraw your consent or discontinue participation at any time without penalty or loss of benefits to which you are otherwise entitled.  The alternative is not to participate.  You have the right to refuse to answer particular questions.  
            </p>
        
            <p>
                Your individual privacy will be maintained in all published and written data resulting from the study. Your responses will be kept confidential: you are given a participant code, and no one, not even the research team, can match that code with your identity. Your collected information may also be shared with other researchers as part of our dataset.
            </p><br>
        
            <h4>CONTACT INFORMATION</h4>
            <p>
                Questions: If you have any questions, concerns or complaints about this research, its procedures, risks and benefits, contact the Protocol Director, Nicholas Camp, npcamp@umich.edu, (443) 851-6783.
            </p>
        
            <p>
                If you have questions about your rights as a research participant, or wish to obtain information, ask questions or discuss any concerns about this study with someone other than the researcher(s), please contact the following:
                <br><br>
        
                University of Michigan<br>
                Health Sciences and Behavioral Sciences Institutional Review Board
                (IRB-HSBS)<br>
                2800 Plymouth Road <br>
                Building 520, Room 1169 <br>
                Ann Arbor, MI 48109-2800 <br>
                Telephone: 734-936-0933 or toll free (866) 936-0933 <br>
                Fax: 734-936-1852 <br />
                E-mail: irbhsbs@umich.edu <br>
            </p>
        
            <p>
                You can also contact the University of Michigan Compliance Hotline at 1-866-990-0111. You may also print this consent form to keep.
            </p>
            <br>
        
            <div class=""alert alert-warning""><b>
                Do you consent to participate in this study? If you consent to participate in this study, please click “Accept and continue.”
            </b></div>
            </div>
        </div>
    ","1","","","","","","","","","","","","","","","","","","","","","","","","","","","","",""
"browser-check","browser-check","2","13563","0.0-2.0-0.0","58064d91f25c440001678a10","626166b218b78fee4e9d8d4c","6261856eb66cfb6a3c5bc5b4","8","","","","1600","749","true","chrome","100.0.4896","false","Windows 10","true","61.26","false","false","","","","","","","","","","","","","","","","","",""
"","preload","3","14727","0.0-2.0-1.0","58064d91f25c440001678a10","626166b218b78fee4e9d8d4c","6261856eb66cfb6a3c5bc5b4","8","","","","","","","","","","","","","","","true","false","[]","[]","[]","","","","","","","","","","","","",""
"instructions","html-button-response","4","22461","0.0-2.0-2.0","58064d91f25c440001678a10","626166b218b78fee4e9d8d4c","6261856eb66cfb6a3c5bc5b4","8","7734","
        <div class=""text-container"">
            <h1>Welcome to the study!</h1>
            
            <div class=""text-left"">
                <p>
                    In this study, we are interested in how people think about different Google Street View images. Google Street View takes pictures of streets used for Google Earth and Google Maps. You’ll see Google Street View images of different places and answer some questions about each one.
                </p>
            </div>
            
            <img src='
            https://maps.googleapis.com/maps/api/streetview?size=640x320
            &location=37.783631,-122.432766
            &heading=80
            &pitch=2
            &fov=100
            &radius=150
            &key=AIzaSyC2OxRDg6qlzZDj7j0UAD2XyE0qWokLvvs
            &source=outdoor'>
        
            <br>
        <br>
    ","0","","","","","","","","","","","","","","","","","","","","","","","","","","","","",""
"instructions","html-button-response","5","59277","0.0-2.0-3.0","58064d91f25c440001678a10","626166b218b78fee4e9d8d4c","6261856eb66cfb6a3c5bc5b4","8","36514","
        <style>
            img.small {
            max-width: 100px;
            }
            li {
            text-indent: 40px;
            }
        </style>

        <div class=""text-container text-left"">
            <p>For each picture, we’d like your impressions of the scene:</p>
            
            <hr>
                Are there <b>clear, distinct boundaries</b> between objects in the scene, or are the <b>boundaries ambiguous or unclear</b>?
                
                <li>clear, distinct boundaries: <img class=""small"" src=""assets/img/ambiguous-low.png""></li>
                <li>ambiguous or unclear boundaries: <img class=""small"" src=""assets/img/ambiguous-high.png""></li>
            <hr>
            <br>
                Are there <b>only a few different objects</b> in the scene, or is there <b>a large number</b>?
            <br><br>
            <hr>
                Are only <b>a few parts</b> of the scene <b>invisible or obscured</b>, or are <b>many parts invisible or obscured</b>?
                
                <li>a few parts invisible or obscured: <img class=""small"" src=""assets/img/invisible-low.png""></li>
                <li>many parts invisible or obscured: <img class=""small"" src=""assets/img/invisible-high.png""></li>
            <hr>
            <br>
                Does the scene look <b>organized</b> or <b>chaotic</b> to you?
            <br><br>
            <hr>
            
            <p>
                There are no right or wrong answers: we are interested in <b>your</b> impression. Note that some images might have individual buildings or faces blurred for privacy. Please ignore these when making your judgments.
            </p>
        </div>
        <br>
    ","0","","","","","","","","","","","","","","","","","","","","","","","","","","","","",""
"instructions","html-button-response","6","64061","0.0-2.0-4.0","58064d91f25c440001678a10","626166b218b78fee4e9d8d4c","6261856eb66cfb6a3c5bc5b4","8","4784","
        <div class=""text-container text-left"">
            <p>Please make sure you are doing this study in an area where you can focus and complete the survey in one sitting.</p>

            <p>Don’t spend too much time on any one picture, and, again go with your gut impression!</p>
            
            <p>The study should take about 30 minutes. We’ll let you know when you’re halfway through.</p>
        </div>
            
        <h3>Ready? Click next to get started!</h3>
        <br>
    ","0","","","","","","","","","","","","","","","","","","","","","","","","","","","","",""
"trial","survey","7","103953","0.0-2.0-5.0","58064d91f25c440001678a10","626166b218b78fee4e9d8d4c","6261856eb66cfb6a3c5bc5b4","8","39804","","{""P0_Q0"":null,""ambiguous"":1,""objects"":4,""invisible"":2,""chaos"":2}","","","","","","","","","","","","","","","","","[]","Nearby location of Yotsuya Station Post Office (jp_tok-c_pos_a_3)","ChIJ5QGWpIuMGGARM3syjI6N6t8","35.6864179","139.7285004","JP","TOK","CTR","POS","1-chōme-8-3 Yotsuya, Shinjuku City, Tokyo 160-0004, Japan","jp_tok-c_pos_b_3","180","jp_tok-c_pos_b_3_180"
"trial","survey","8","124666","0.0-2.0-6.0","58064d91f25c440001678a10","626166b218b78fee4e9d8d4c","6261856eb66cfb6a3c5bc5b4","8","20700","","{""P0_Q0"":null,""ambiguous"":5,""objects"":3,""invisible"":5,""chaos"":4}","","","","","","","","","","","","","","","","","[]","Nearby location of HOTEL K5 (jp_tok-c_htl_a_mid1)","ChIJb-Z94FCJGGARIe-5JBrSwok","35.6841632","139.7792313","JP","TOK","CTR","HTL","19-12 Nihonbashikoamichō, Chuo City, Tokyo 103-0016, Japan","jp_tok-c_htl_b_mid1","180","jp_tok-c_htl_b_mid1_180"
"trial","survey","9","151347","0.0-2.0-7.0","58064d91f25c440001678a10","626166b218b78fee4e9d8d4c","6261856eb66cfb6a3c5bc5b4","8","26672","","{""P0_Q0"":null,""ambiguous"":5,""objects"":4,""invisible"":4,""chaos"":3}","","","","","","","","","","","","","","","","","[]","Nearby location of United States Postal Service (us_arb_pos_a_1)","ChIJyxaGSDe7PIgRdsmUdk5LYuo","42.1703237","-83.7718728","US","ARB","ARB","POS","450 E Michigan Ave, Saline, MI 48176, USA","us_arb_pos_b_1","270","us_arb_pos_b_1_270"
"trial","survey","10","164954","0.0-2.0-8.0","58064d91f25c440001678a10","626166b218b78fee4e9d8d4c","6261856eb66cfb6a3c5bc5b4","8","13600","","{""P0_Q0"":null,""ambiguous"":5,""objects"":5,""invisible"":5,""chaos"":4}","","","","","","","","","","","","","","","","","[]","Nearby location of The Baltic House (us_nyc-p_htl_a_mid1)","ChIJz1earlRawokRerP6Itd2JDg","40.6806771","-73.9836973","US","NYC","PER","HTL","175 3rd Ave, Brooklyn, NY 11217, USA","us_nyc-p_htl_b_mid1","270","us_nyc-p_htl_b_mid1_270"
"trial","survey","11","181355","0.0-2.0-9.0","58064d91f25c440001678a10","626166b218b78fee4e9d8d4c","6261856eb66cfb6a3c5bc5b4","8","16392","","{""P0_Q0"":null,""ambiguous"":4,""objects"":5,""invisible"":4,""chaos"":2}","","","","","","","","","","","","","","","","","[]","HOTEL K5","DSTYOKHO","35.68271","139.77801","JP","TOK","CTR","HTL","3-5 NIHOMBASHI KABUTOCHO, TOKYO 103-0026","jp_tok-c_htl_a_mid1","90","jp_tok-c_htl_a_mid1_90"
"trial","survey","12","195490","0.0-2.0-10.0","58064d91f25c440001678a10","626166b218b78fee4e9d8d4c","6261856eb66cfb6a3c5bc5b4","8","14126","","{""P0_Q0"":null,""ambiguous"":4,""objects"":4,""invisible"":5,""chaos"":3}","","","","","","","","","","","","","","","","","[]","Nearby location of Jingūmae 6 Post Office (jp_tok-c_pos_a_2)","ChIJo2FXfqaMGGARaHWKnjoqihY","35.665387","139.7037685","JP","TOK","CTR","POS","6-chōme-16-6 Jingūmae, Shibuya City, Tokyo 150-0001, Japan","jp_tok-c_pos_b_2","180","jp_tok-c_pos_b_2_180"
"trial","survey","13","212779","0.0-2.0-11.0","58064d91f25c440001678a10","626166b218b78fee4e9d8d4c","6261856eb66cfb6a3c5bc5b4","8","17280","","{""P0_Q0"":null,""ambiguous"":2,""objects"":2,""invisible"":2,""chaos"":1}","","","","","","","","","","","","","","","","","[]","Success Academy Harlem 5","ChIJLXaSYHr2wokROx6Mq1FzC9A","40.820192","-73.9444568","US","NYC","CTR","SCH","301 W 140th St, New York, NY 10030, USA","us_nyc-c_sch_a_2","0","us_nyc-c_sch_a_2_0"
"trial","survey","14","225330","0.0-2.0-12.0","58064d91f25c440001678a10","626166b218b78fee4e9d8d4c","6261856eb66cfb6a3c5bc5b4","8","12543","","{""P0_Q0"":null,""ambiguous"":4,""objects"":4,""invisible"":5,""chaos"":4}","","","","","","","","","","","","","","","","","[]","BASIS Independent Manhattan","ChIJcxgyLyf2wokRA7fDLLpP4Co","40.7945131","-73.9660392","US","NYC","CTR","SCH","795 Columbus Ave, New York, NY 10025, USA","us_nyc-c_sch_a_1","270","us_nyc-c_sch_a_1_270"
"trial","survey","15","237602","0.0-2.0-13.0","58064d91f25c440001678a10","626166b218b78fee4e9d8d4c","6261856eb66cfb6a3c5bc5b4","8","12262","","{""P0_Q0"":null,""ambiguous"":5,""objects"":5,""invisible"":5,""chaos"":5}","","","","","","","","","","","","","","","","","[]","Nearby location of William O'Shea Campus (us_nyc-c_sch_a_6)","ChIJpefuOY9YwokR-Pk3vGiQNI4","40.7819913","-73.9762638","US","NYC","CTR","SCH","118 W 79th St, New York, NY 10024, USA","us_nyc-c_sch_b_6","90","us_nyc-c_sch_b_6_90"
"trial","survey","16","253866","0.0-2.0-14.0","58064d91f25c440001678a10","626166b218b78fee4e9d8d4c","6261856eb66cfb6a3c5bc5b4","8","16255","","{""P0_Q0"":null,""ambiguous"":2,""objects"":2,""invisible"":2,""chaos"":1}","","","","","","","","","","","","","","","","","[]","United States Postal Service","ChIJS0NV70lawokRJtOpGTdtCiU","40.6959073","-73.9899798","US","NYC","PER","POS","271 Cadman Plaza E Ste 2, Brooklyn, NY 11201, USA","us_nyc-p_pos_a_4","180","us_nyc-p_pos_a_4_180"
"trial","survey","17","265634","0.0-2.0-15.0","58064d91f25c440001678a10","626166b218b78fee4e9d8d4c","6261856eb66cfb6a3c5bc5b4","8","11759","","{""P0_Q0"":null,""ambiguous"":4,""objects"":5,""invisible"":5,""chaos"":5}","","","","","","","","","","","","","","","","","[]","Hilton Garden Inn New York/Manhattan-Midtown East","GILGA964","40.75658","-73.96944","US","NYC","CTR","HTL","206 EAST 52ND STREET, NEW YORK, NY 10022","us_nyc-c_htl_a_low2","90","us_nyc-c_htl_a_low2_90"
"trial","survey","18","288010","0.0-2.0-16.0","58064d91f25c440001678a10","626166b218b78fee4e9d8d4c","6261856eb66cfb6a3c5bc5b4","8","22368","","{""P0_Q0"":null,""ambiguous"":3,""objects"":4,""invisible"":3,""chaos"":2}","","","","","","","","","","","","","","","","","[]","Nearby location of Mercer Hotel (us_nyc-c_htl_a_ultra2)","ChIJBQxsB49ZwokRbGyFLxfuImc","40.7247177","-73.9975539","US","NYC","CTR","HTL","570 Broadway, New York, NY 10012, USA","us_nyc-c_htl_b_ultra2","90","us_nyc-c_htl_b_ultra2_90"
"trial","survey","19","301313","0.0-2.0-17.0","58064d91f25c440001678a10","626166b218b78fee4e9d8d4c","6261856eb66cfb6a3c5bc5b4","8","13296","","{""P0_Q0"":null,""ambiguous"":5,""objects"":5,""invisible"":5,""chaos"":4}","","","","","","","","","","","","","","","","","[]","United States Postal Service","ChIJS0NV70lawokRJtOpGTdtCiU","40.6959073","-73.9899798","US","NYC","PER","POS","271 Cadman Plaza E Ste 2, Brooklyn, NY 11201, USA","us_nyc-p_pos_a_4","270","us_nyc-p_pos_a_4_270"
"trial","survey","20","313378","0.0-2.0-18.0","58064d91f25c440001678a10","626166b218b78fee4e9d8d4c","6261856eb66cfb6a3c5bc5b4","8","12057","","{""P0_Q0"":null,""ambiguous"":5,""objects"":5,""invisible"":4,""chaos"":4}","","","","","","","","","","","","","","","","","[]","Nearby location of Shinshuku Elementary School (jp_tok-p_sch_a_2)","ChIJQemZKVlgGGARmLFMYv3EENc","35.5584586","139.7170675","JP","TOK","PER","SCH","Japan, 〒144-0053 Tokyo, Ota City, Kamatahonchō, 1-chōme−2−５ ＮＴＴ蒲田ビル","jp_tok-p_sch_b_2","270","jp_tok-p_sch_b_2_270"
"trial","survey","21","329841","0.0-2.0-19.0","58064d91f25c440001678a10","626166b218b78fee4e9d8d4c","6261856eb66cfb6a3c5bc5b4","8","16453","","{""P0_Q0"":null,""ambiguous"":5,""objects"":5,""invisible"":5,""chaos"":4}","","","","","","","","","","","","","","","","","[]","須賀谷温泉","ChIJ_4AJx3YmAmARdbO9N7D3Ofo","35.454895","136.281751","JP","TOR","TOR","HTL","36 Sugatanichō, Nagahama, Shiga 526-0277, Japan","jp_tor_htl_a_high1","270","jp_tor_htl_a_high1_270"
"trial","survey","22","350065","0.0-2.0-20.0","58064d91f25c440001678a10","626166b218b78fee4e9d8d4c","6261856eb66cfb6a3c5bc5b4","8","20216","","{""P0_Q0"":null,""ambiguous"":5,""objects"":3,""invisible"":4,""chaos"":4}","","","","","","","","","","","","","","","","","[]","Baymont by Wyndham Chelsea","ChIJ3WjGMLjOPIgRTSh5bhMfx-Q","42.2995297","-84.0281015","US","CHL","CHL","HTL","1540 Commerce Park Dr, Chelsea, MI 48118, USA","us_chl_htl_a_mid1","180","us_chl_htl_a_mid1_180"
"trial","survey","23","366753","0.0-2.0-21.0","58064d91f25c440001678a10","626166b218b78fee4e9d8d4c","6261856eb66cfb6a3c5bc5b4","8","16680","","{""P0_Q0"":null,""ambiguous"":2,""objects"":3,""invisible"":3,""chaos"":2}","","","","","","","","","","","","","","","","","[]","Nearby location of TownePlace Suites by Marriott Ann Arbor (us_arb_htl_a_mid1)","ChIJ71gCcu-vPIgRi_B5Ob5B76o","42.2367203","-83.7509139","US","ARB","ARB","HTL","1126 Lariat Loop, Ann Arbor, MI 48108, USA","us_arb_htl_b_mid1","0","us_arb_htl_b_mid1_0"
"trial","survey","24","381025","0.0-2.0-22.0","58064d91f25c440001678a10","626166b218b78fee4e9d8d4c","6261856eb66cfb6a3c5bc5b4","8","14264","","{""P0_Q0"":null,""ambiguous"":5,""objects"":5,""invisible"":5,""chaos"":4}","","","","","","","","","","","","","","","","","[]","Nearby location of Ōmori Bellport Post Office (jp_hik_pos_a_2)","ChIJ7Ywa2cxhGGARziYl93kj-_E","35.5874802","139.7328359","JP","HIK","HIK","POS","3-chōme-35-8 Minamiōi, Shinagawa City, Tokyo 140-0013, Japan","jp_hik_pos_b_2","0","jp_hik_pos_b_2_0"
"trial","survey","25","397761","0.0-2.0-23.0","58064d91f25c440001678a10","626166b218b78fee4e9d8d4c","6261856eb66cfb6a3c5bc5b4","8","16728","","{""P0_Q0"":null,""ambiguous"":5,""objects"":5,""invisible"":5,""chaos"":4}","","","","","","","","","","","","","","","","","[]","The Baltic House","XTNYC653","40.682","-73.985","US","NYC","PER","HTL","489 BALTIC STREET, BROOKLYN, NY 11217","us_nyc-p_htl_a_mid1","270","us_nyc-p_htl_a_mid1_270"
"trial","survey","26","416641","0.0-2.0-24.0","58064d91f25c440001678a10","626166b218b78fee4e9d8d4c","6261856eb66cfb6a3c5bc5b4","8","18872","","{""P0_Q0"":null,""ambiguous"":2,""objects"":2,""invisible"":3,""chaos"":2}","","","","","","","","","","","","","","","","","[]","Manually Updated Jittered SV for Nearby location of Hotel Villa Fontaine Nihombashi-Hakozaki (jp_tok-c_htl_a_low1) (jp_tok-c_htl_b_low1)","ChIJcZnDxKeJGGARHOldLPKzIl8","35.682421","139.78596","JP","TOK","CTR","HTL","2-chōme-2 Nihonbashikakigarachō, Chuo City, Tokyo 103-0014, Japan","jp_tok-c_htl_b_low1","0","jp_tok-c_htl_b_low1_0"
"trial","survey","27","431817","0.0-2.0-25.0","58064d91f25c440001678a10","626166b218b78fee4e9d8d4c","6261856eb66cfb6a3c5bc5b4","8","15170","","{""P0_Q0"":null,""ambiguous"":4,""objects"":4,""invisible"":4,""chaos"":3}","","","","","","","","","","","","","","","","","[]","Nearby location of Sandy Hook CenTer (us_nyc-c_sch_a_4)","ChIJVVVgOJFZwokRN9n4QjPq_Dc","40.731952","-73.999183","US","NYC","CTR","SCH","31 Washington Square W, New York, NY 10011, USA","us_nyc-c_sch_b_4","270","us_nyc-c_sch_b_4_270"
"trial","survey","28","445472","0.0-2.0-26.0","58064d91f25c440001678a10","626166b218b78fee4e9d8d4c","6261856eb66cfb6a3c5bc5b4","8","13649","","{""P0_Q0"":null,""ambiguous"":3,""objects"":2,""invisible"":3,""chaos"":2}","","","","","","","","","","","","","","","","","[]","Nearby location of Bunkyo Otsuka 3 Post Office (jp_tok-c_pos_a_7)","ChIJ8yJGd6-NGGARH10utNOusFo","35.7205268","139.7394333","JP","TOK","CTR","POS","3-chōme-35-1 Ōtsuka, Bunkyo City, Tokyo 112-0012, Japan","jp_tok-c_pos_b_7","0","jp_tok-c_pos_b_7_0"
"trial","survey","29","455443","0.0-2.0-27.0","58064d91f25c440001678a10","626166b218b78fee4e9d8d4c","6261856eb66cfb6a3c5bc5b4","8","9964","","{""P0_Q0"":null,""ambiguous"":5,""objects"":5,""invisible"":5,""chaos"":4}","","","","","","","","","","","","","","","","","[]","Nearby location of United States Postal Service (us_nyc-c_pos_a_7)","ChIJjVTn2xD2wokRxjWBnF0UGVg","40.8023565","-73.9528115","US","NYC","CTR","POS","113 St Nicholas Ave, New York, NY 10026, USA","us_nyc-c_pos_b_7","90","us_nyc-c_pos_b_7_90"
"trial","survey","30","475472","0.0-2.0-28.0","58064d91f25c440001678a10","626166b218b78fee4e9d8d4c","6261856eb66cfb6a3c5bc5b4","8","20023","","{""P0_Q0"":null,""ambiguous"":5,""objects"":5,""invisible"":5,""chaos"":4}","","","","","","","","","","","","","","","","","[]","United States Postal Service","ChIJESBBoWz2wokRc5NBjEpQTow","40.8112416","-73.9532884","US","NYC","CTR","POS","365 W 125th St Ste 2A, New York, NY 10027, USA","us_nyc-c_pos_a_1","90","us_nyc-c_pos_a_1_90"
"trial","survey","31","492360","0.0-2.0-29.0","58064d91f25c440001678a10","626166b218b78fee4e9d8d4c","6261856eb66cfb6a3c5bc5b4","8","16881","","{""P0_Q0"":null,""ambiguous"":4,""objects"":3,""invisible"":5,""chaos"":2}","","","","","","","","","","","","","","","","","[]","Sasazuka Elementary School","ChIJ93VkemvzGGARQtwBVOaMyuk","35.6759768","139.6693391","JP","TOK","CTR","SCH","2-chōme-8-1 Sasazuka, Shibuya City, Tokyo 151-0073, Japan","jp_tok-c_sch_a_6","90","jp_tok-c_sch_a_6_90"
"trial","survey","32","505384","0.0-2.0-30.0","58064d91f25c440001678a10","626166b218b78fee4e9d8d4c","6261856eb66cfb6a3c5bc5b4","8","13016","","{""P0_Q0"":null,""ambiguous"":5,""objects"":5,""invisible"":5,""chaos"":3}","","","","","","","","","","","","","","","","","[]","Nearby location of Nakano Shirasagi Post Office (jp_tok-p_pos_a_3)","ChIJAX-SVZHtGGARmipALMOfEzw","35.7202777","139.6350482","JP","TOK","PER","POS","T&Ns, 2-chōme-37-3 Shirasagi, Nakano City, Tokyo 165-0035, Japan","jp_tok-p_pos_b_3","90","jp_tok-p_pos_b_3_90"
"trial","survey","33","515129","0.0-2.0-31.0","58064d91f25c440001678a10","626166b218b78fee4e9d8d4c","6261856eb66cfb6a3c5bc5b4","8","9737","","{""P0_Q0"":null,""ambiguous"":5,""objects"":5,""invisible"":5,""chaos"":4}","","","","","","","","","","","","","","","","","[]","Nearby location of The Westin Tokyo (jp_tok-p_htl_a_high2)","ChIJrVZsu8CLGGARMYSk3wOv6Fk","35.6401336","139.7167882","JP","TOK","PER","HTL","Japan, 〒141-0021 Tokyo, Shinagawa City, Kamiōsaki, 2-chōme−3−３０ イトーピア長者丸ＩＤＥＡ","jp_tok-p_htl_b_high2","0","jp_tok-p_htl_b_high2_0"
"trial","survey","34","528536","0.0-2.0-32.0","58064d91f25c440001678a10","626166b218b78fee4e9d8d4c","6261856eb66cfb6a3c5bc5b4","8","13400","","{""P0_Q0"":null,""ambiguous"":2,""objects"":3,""invisible"":3,""chaos"":2}","","","","","","","","","","","","","","","","","[]","ORCHARD STREET HOTEL","PWNYC109","40.72117","-73.98894","US","NYC","CTR","HTL","163 ORCHARD STREET, NEW YORK, NY 10002","us_nyc-c_htl_a_low1","90","us_nyc-c_htl_a_low1_90"
"trial","survey","35","541080","0.0-2.0-33.0","58064d91f25c440001678a10","626166b218b78fee4e9d8d4c","6261856eb66cfb6a3c5bc5b4","8","12537","","{""P0_Q0"":null,""ambiguous"":5,""objects"":3,""invisible"":5,""chaos"":3}","","","","","","","","","","","","","","","","","[]","Oizumi Daini Elementary School","ChIJOT0Kk9nuGGARlr5-SQA1DDo","35.744542","139.573028","JP","TOK","PER","SCH","4-chōme-29-11 Minamiōizumi, Nerima City, Tokyo 178-0064, Japan","jp_tok-p_sch_a_6","180","jp_tok-p_sch_a_6_180"
"trial","survey","36","552968","0.0-2.0-34.0","58064d91f25c440001678a10","626166b218b78fee4e9d8d4c","6261856eb66cfb6a3c5bc5b4","8","11879","","{""P0_Q0"":null,""ambiguous"":4,""objects"":3,""invisible"":4,""chaos"":2}","","","","","","","","","","","","","","","","","[]","Ōmori Bellport Post Office","ChIJFXY_sTJgGGARZtQCo-Qdz_M","35.5888587","139.7314559","JP","HIK","HIK","POS","6-chōme-26-3 Minamiōi, Shinagawa City, Tokyo 140-0013, Japan","jp_hik_pos_a_2","90","jp_hik_pos_a_2_90"
"half-way","html-button-response","37","568720","0.0-2.0-35.0","58064d91f25c440001678a10","626166b218b78fee4e9d8d4c","6261856eb66cfb6a3c5bc5b4","8","null","
            <h3>You are now half way through the study.</h3>
            <p>Please take a quick, 15-second break before you continue.</p>
            <img src='assets/img/countdown-15.gif'>
            <p>The study will automatically advance forward after the countdown is complete. However, you may click ""Next"" to advance forward now if you wish.</p>
        ","null","","","","","","","","","","","","","","","","","","","","","","","","","","","","",""
"attention-check","survey","38","577257","0.0-2.0-36.0","58064d91f25c440001678a10","626166b218b78fee4e9d8d4c","6261856eb66cfb6a3c5bc5b4","8","8530","","{""P0_Q0"":null,""ambiguous"":null,""objects"":null,""invisible"":null,""chaos"":null}","","","","","","","","","","","","","","","","","[]","","","","","","","","","","","",""
"trial","survey","39","590840","0.0-2.0-37.0","58064d91f25c440001678a10","626166b218b78fee4e9d8d4c","6261856eb66cfb6a3c5bc5b4","8","13577","","{""P0_Q0"":null,""ambiguous"":5,""objects"":5,""invisible"":5,""chaos"":3}","","","","","","","","","","","","","","","","","[]","Nearby location of 台東小学校跡 (jp_tok-c_sch_a_1)","ChIJRW4MQI-OGGARtWvlCd2h0KY","35.7243493","139.7843592","JP","TOK","CTR","SCH","Japan, 〒110-0003 Tokyo, Taito City, Negishi, 4-chōme−1−３ 安楽寺","jp_tok-c_sch_b_1","180","jp_tok-c_sch_b_1_180"
"trial","survey","40","602679","0.0-2.0-38.0","58064d91f25c440001678a10","626166b218b78fee4e9d8d4c","6261856eb66cfb6a3c5bc5b4","8","11831","","{""P0_Q0"":null,""ambiguous"":5,""objects"":5,""invisible"":5,""chaos"":3}","","","","","","","","","","","","","","","","","[]","Adahi Sano Post Office","ChIJuYxTuuOPGGAREn1yJl24fbw","35.7864794","139.8411136","JP","HIK","HIK","POS","2-chōme-11-12 Sano, Adachi City, Tokyo 121-0053, Japan","jp_hik_pos_a_3","270","jp_hik_pos_a_3_270"
"trial","survey","41","618783","0.0-2.0-39.0","58064d91f25c440001678a10","626166b218b78fee4e9d8d4c","6261856eb66cfb6a3c5bc5b4","8","16096","","{""P0_Q0"":null,""ambiguous"":2,""objects"":3,""invisible"":3,""chaos"":2}","","","","","","","","","","","","","","","","","[]","Nearby location of 長浜BGホテル (us_chl_htl_a_mid1)","ChIJ2S_MbyspAmARkndCsjafTIg","35.3930344","136.2840486","JP","TOR","TOR","HTL","222-1 Kawasakichō, Nagahama, Shiga 526-0846, Japan","jp_tor_htl_b_mid1","90","jp_tor_htl_b_mid1_90"
"trial","survey","42","628407","0.0-2.0-40.0","58064d91f25c440001678a10","626166b218b78fee4e9d8d4c","6261856eb66cfb6a3c5bc5b4","8","9616","","{""P0_Q0"":null,""ambiguous"":3,""objects"":4,""invisible"":4,""chaos"":2}","","","","","","","","","","","","","","","","","[]","Nerima Sakuradai Post Office","ChIJazp3ghLtGGARuc0S6p6HeSM","35.7372339","139.6605353","JP","TOK","PER","POS","2-chōme-22-14 Toyotamakami, Nerima City, Tokyo 176-0011, Japan","jp_tok-p_pos_a_5","270","jp_tok-p_pos_a_5_270"
"trial","survey","43","642968","0.0-2.0-41.0","58064d91f25c440001678a10","626166b218b78fee4e9d8d4c","6261856eb66cfb6a3c5bc5b4","8","14553","","{""P0_Q0"":null,""ambiguous"":5,""objects"":3,""invisible"":5,""chaos"":3}","","","","","","","","","","","","","","","","","[]","Nearby location of Oizumi Daini Elementary School (jp_tok-p_sch_a_6)","ChIJMaeqHtruGGARm4LZU_WxHzQ","35.7454686","139.5741349","JP","TOK","PER","SCH","4-chōme-32-2 Minamiōizumi, Nerima City, Tokyo 178-0064, Japan","jp_tok-p_sch_b_6","0","jp_tok-p_sch_b_6_0"
"trial","survey","44","658047","0.0-2.0-42.0","58064d91f25c440001678a10","626166b218b78fee4e9d8d4c","6261856eb66cfb6a3c5bc5b4","8","15071","","{""P0_Q0"":null,""ambiguous"":5,""objects"":5,""invisible"":5,""chaos"":3}","","","","","","","","","","","","","","","","","[]","Nearby location of Fairfield Inn and Suites by Marriott New York Manhattan Times Square (us_nyc-c_htl_a_mid1)","ChIJt_ncpFJYwokRykJpalw_bYU","40.7575246","-73.994055","US","NYC","CTR","HTL","405 W 40th St, New York, NY 10018, USA","us_nyc-c_htl_b_mid1","90","us_nyc-c_htl_b_mid1_90"
"trial","survey","45","668864","0.0-2.0-43.0","58064d91f25c440001678a10","626166b218b78fee4e9d8d4c","6261856eb66cfb6a3c5bc5b4","8","10809","","{""P0_Q0"":null,""ambiguous"":5,""objects"":5,""invisible"":5,""chaos"":4}","","","","","","","","","","","","","","","","","[]","Nearby location of United States Postal Service (us_nyc-c_pos_a_5)","ChIJTw7oFwP0wokR0VL0nLNaknc","40.857723","-73.93222","US","NYC","CTR","POS","Broadway/W 192 St, New York, NY 10040, USA","us_nyc-c_pos_b_5","0","us_nyc-c_pos_b_5_0"
"trial","survey","46","679783","0.0-2.0-44.0","58064d91f25c440001678a10","626166b218b78fee4e9d8d4c","6261856eb66cfb6a3c5bc5b4","8","10911","","{""P0_Q0"":null,""ambiguous"":5,""objects"":3,""invisible"":5,""chaos"":3}","","","","","","","","","","","","","","","","","[]","Nearby location of Sakata Elementary School (jp_hik_sch_a_4)","ChIJBzK5RHYsAmARdmisGXiOTX0","35.3390583","136.2876793","JP","HIK","HIK","SCH","528 Ukano, Maibara, Shiga 521-0062, Japan","jp_hik_sch_b_4","0","jp_hik_sch_b_4_0"
"trial","survey","47","693063","0.0-2.0-45.0","58064d91f25c440001678a10","626166b218b78fee4e9d8d4c","6261856eb66cfb6a3c5bc5b4","8","13273","","{""P0_Q0"":null,""ambiguous"":3,""objects"":3,""invisible"":4,""chaos"":2}","","","","","","","","","","","","","","","","","[]","Nearby location of Hotel JAL City Tokyo Toyosu (jp_tok-p_htl_a_mid1)","ChIJhxfMYB-JGGARzU1jFMgKRZ8","35.684968","139.8100484","JP","TOK","PER","HTL","1-chōme-1-7 Sarue, Koto City, Tokyo 135-0003, Japan","jp_tok-p_htl_b_mid1","0","jp_tok-p_htl_b_mid1_0"
"trial","survey","48","704351","0.0-2.0-46.0","58064d91f25c440001678a10","626166b218b78fee4e9d8d4c","6261856eb66cfb6a3c5bc5b4","8","11280","","{""P0_Q0"":null,""ambiguous"":5,""objects"":5,""invisible"":5,""chaos"":4}","","","","","","","","","","","","","","","","","[]","INTERCONTINENTAL THE STRINGS","ICTYOSTR","35.62791","139.74075","JP","TOK","CTR","HTL","26 32 F SHINAGAWA EAST ONE TWR 2 16 1 KONAN, TOKYO 108 8282","jp_tok-c_htl_a_mid2","90","jp_tok-c_htl_a_mid2_90"
"trial","survey","49","716327","0.0-2.0-47.0","58064d91f25c440001678a10","626166b218b78fee4e9d8d4c","6261856eb66cfb6a3c5bc5b4","8","11970","","{""P0_Q0"":null,""ambiguous"":4,""objects"":3,""invisible"":4,""chaos"":2}","","","","","","","","","","","","","","","","","[]","Jittered SV for Horace Mann Barnard Elementary (us_nyc-p_sch_a_1)","ChIJXWJvya_zwokRupFUpNOXhkc","40.8931192","-73.899225","US","NYC","PER","SCH","231 W 246th St, Bronx, NY 10471, USA","us_nyc-p_sch_a_1","270","us_nyc-p_sch_a_1_270"
"trial","survey","50","726871","0.0-2.0-48.0","58064d91f25c440001678a10","626166b218b78fee4e9d8d4c","6261856eb66cfb6a3c5bc5b4","8","10538","","{""P0_Q0"":null,""ambiguous"":5,""objects"":5,""invisible"":5,""chaos"":4}","","","","","","","","","","","","","","","","","[]","Nearby location of MyStays Asakusa (jp_tok-p_htl_a_low1)","ChIJo6zX0s6OGGAROOChcY8yK98","35.7053797","139.7984784","JP","TOK","PER","HTL","1-chōme-7-4 Higashikomagata, Sumida City, Tokyo 130-0005, Japan","jp_tok-p_htl_b_low1","270","jp_tok-p_htl_b_low1_270"
"trial","survey","51","741847","0.0-2.0-49.0","58064d91f25c440001678a10","626166b218b78fee4e9d8d4c","6261856eb66cfb6a3c5bc5b4","8","14970","","{""P0_Q0"":null,""ambiguous"":5,""objects"":4,""invisible"":5,""chaos"":2}","","","","","","","","","","","","","","","","","[]","Yotsuya Station Post Office","ChIJM8cHVYqMGGARUz2wtp-skCo","35.6875819","139.7296034","JP","TOK","CTR","POS","Japan, 〒160-0004 Tokyo, Shinjuku City, Yotsuya, 1-chōme−６−１","jp_tok-c_pos_a_3","90","jp_tok-c_pos_a_3_90"
"trial","survey","52","753167","0.0-2.0-50.0","58064d91f25c440001678a10","626166b218b78fee4e9d8d4c","6261856eb66cfb6a3c5bc5b4","8","11312","","{""P0_Q0"":null,""ambiguous"":3,""objects"":3,""invisible"":4,""chaos"":2}","","","","","","","","","","","","","","","","","[]","Nearby location of South Meadows Elementary School (us_chl_sch_a_1)","ChIJFQ7Lva7OPIgR_c0d98fxzFI","42.3109393","-84.0229592","US","CHL","CHL","SCH","511 Maywood St, Chelsea, MI 48118, USA","us_chl_sch_b_1","0","us_chl_sch_b_1_0"
"trial","survey","53","767055","0.0-2.0-51.0","58064d91f25c440001678a10","626166b218b78fee4e9d8d4c","6261856eb66cfb6a3c5bc5b4","8","13881","","{""P0_Q0"":null,""ambiguous"":2,""objects"":2,""invisible"":3,""chaos"":2}","","","","","","","","","","","","","","","","","[]","Nearby location of 3rd Haketa Elementary School (jp_tok-p_sch_a_1)","ChIJj82HZcOPGGARdlxKpMVK0K8","35.7349985","139.787222","JP","TOK","PER","SCH","Japan, 〒116-0002 Tokyo, Arakawa City, Arakawa, 1-chōme−26−１ ＮＴＴ ビル 本館1階","jp_tok-p_sch_b_1","270","jp_tok-p_sch_b_1_270"
"trial","survey","54","784814","0.0-2.0-52.0","58064d91f25c440001678a10","626166b218b78fee4e9d8d4c","6261856eb66cfb6a3c5bc5b4","8","17752","","{""P0_Q0"":null,""ambiguous"":3,""objects"":5,""invisible"":4,""chaos"":1}","","","","","","","","","","","","","","","","","[]","Nearby location of P.S. 153 Adam Clayton Powell (us_nyc-c_sch_a_3)","ChIJ37jL5mL2wokRoeoE0seWQ44","40.8276038","-73.9486798","US","NYC","CTR","SCH","547 W 147th St, New York, NY 10031, USA","us_nyc-c_sch_b_3","270","us_nyc-c_sch_b_3_270"
"trial","survey","55","798199","0.0-2.0-53.0","58064d91f25c440001678a10","626166b218b78fee4e9d8d4c","6261856eb66cfb6a3c5bc5b4","8","13377","","{""P0_Q0"":null,""ambiguous"":4,""objects"":3,""invisible"":3,""chaos"":2}","","","","","","","","","","","","","","","","","[]","Nearby location of United States Postal Service (us_nyc-c_pos_a_4)","ChIJcyZXC532wokRElZ4iPS6aWo","40.8396207","-73.9374588","US","NYC","CTR","POS","2170 Amsterdam Ave, New York, NY 10032, USA","us_nyc-c_pos_b_4","90","us_nyc-c_pos_b_4_90"
"trial","survey","56","813519","0.0-2.0-54.0","58064d91f25c440001678a10","626166b218b78fee4e9d8d4c","6261856eb66cfb6a3c5bc5b4","8","15312","","{""P0_Q0"":null,""ambiguous"":3,""objects"":2,""invisible"":3,""chaos"":2}","","","","","","","","","","","","","","","","","[]","Manually Updated Nearby location of Multicultural Academy (us_arb_sch_a_3)","ChIJ-d4ve5SlPIgRkuG2a85xlZo","42.206221","-83.699299","US","ARB","ARB","SCH","2866 Glen Creek Dr, Ann Arbor, MI 48108, USA","us_arb_sch_b_3","0","us_arb_sch_b_3_0"
"trial","survey","57","824478","0.0-2.0-55.0","58064d91f25c440001678a10","626166b218b78fee4e9d8d4c","6261856eb66cfb6a3c5bc5b4","8","10952","","{""P0_Q0"":null,""ambiguous"":5,""objects"":5,""invisible"":5,""chaos"":2}","","","","","","","","","","","","","","","","","[]","Nearby location of Bell Tower Hotel (us_arb_htl_a_high2)","ChIJuS95eUCuPIgRE9IqLokaozs","42.280115","-83.7411408","US","ARB","ARB","HTL","200 S State St, Ann Arbor, MI 48104, USA","us_arb_htl_b_high2","270","us_arb_htl_b_high2_270"
"trial","survey","58","839158","0.0-2.0-56.0","58064d91f25c440001678a10","626166b218b78fee4e9d8d4c","6261856eb66cfb6a3c5bc5b4","8","14672","","{""P0_Q0"":null,""ambiguous"":3,""objects"":5,""invisible"":5,""chaos"":2}","","","","","","","","","","","","","","","","","[]","Mandarin Oriental New York","MONYCMO1","40.7689","-73.98305","US","NYC","CTR","HTL","80  COLUMBUS CIRCLE AT 60TH STREET, NEW YORK, NY 10023","us_nyc-c_htl_a_ultra1","270","us_nyc-c_htl_a_ultra1_270"
"trial","survey","59","850319","0.0-2.0-57.0","58064d91f25c440001678a10","626166b218b78fee4e9d8d4c","6261856eb66cfb6a3c5bc5b4","8","11153","","{""P0_Q0"":null,""ambiguous"":5,""objects"":5,""invisible"":3,""chaos"":2}","","","","","","","","","","","","","","","","","[]","Hilton New York JFK Airport, NY","HHJFK153","40.66771","-73.79584","US","NYC","PER","HTL","144 02 135TH AVENUE, JAMAICA, NY 11436","us_nyc-p_htl_a_mid2","0","us_nyc-p_htl_a_mid2_0"
"trial","survey","60","861687","0.0-2.0-58.0","58064d91f25c440001678a10","626166b218b78fee4e9d8d4c","6261856eb66cfb6a3c5bc5b4","8","11361","","{""P0_Q0"":null,""ambiguous"":2,""objects"":2,""invisible"":2,""chaos"":1}","","","","","","","","","","","","","","","","","[]","Mercer Hotel","WVNYCMER","40.72603","-73.99856","US","NYC","CTR","HTL","147 MERCER STREET , NEW YORK, NY 10012","us_nyc-c_htl_a_ultra2","270","us_nyc-c_htl_a_ultra2_270"
"trial","survey","61","876622","0.0-2.0-59.0","58064d91f25c440001678a10","626166b218b78fee4e9d8d4c","6261856eb66cfb6a3c5bc5b4","8","14928","","{""P0_Q0"":null,""ambiguous"":3,""objects"":4,""invisible"":3,""chaos"":2}","","","","","","","","","","","","","","","","","[]","Nearby location of Math, Language and Art Elementary Math Algebra I & II Geometry PreCalculus Calculus College Math Data Analysis (us_nyc-p_sch_a_2)","ChIJrTWRtBpgwokRN4EStLSswiQ","40.7637342","-73.8299598","US","NYC","PER","SCH","137-35 Northern Blvd, Queens, NY 11354, USA","us_nyc-p_sch_b_2","0","us_nyc-p_sch_b_2_0"
"trial","survey","62","887214","0.0-2.0-60.0","58064d91f25c440001678a10","626166b218b78fee4e9d8d4c","6261856eb66cfb6a3c5bc5b4","8","10584","","{""P0_Q0"":null,""ambiguous"":5,""objects"":5,""invisible"":5,""chaos"":4}","","","","","","","","","","","","","","","","","[]","Nearby location of 豊島区立朝日小学校 ひいらぎ学級 (jp_tok-c_sch_a_2)","ChIJsX5PhoGNGGARkg3BIt6IYKg","35.7421166","139.7340459","JP","TOK","CTR","SCH","4-chōme-57-10 Nishigahara, Kita City, Tokyo 114-0024, Japan","jp_tok-c_sch_b_2","90","jp_tok-c_sch_b_2_90"
"trial","survey","63","897926","0.0-2.0-61.0","58064d91f25c440001678a10","626166b218b78fee4e9d8d4c","6261856eb66cfb6a3c5bc5b4","8","10705","","{""P0_Q0"":null,""ambiguous"":3,""objects"":3,""invisible"":4,""chaos"":2}","","","","","","","","","","","","","","","","","[]","Oizumi Daini Elementary School","ChIJOT0Kk9nuGGARlr5-SQA1DDo","35.744542","139.573028","JP","TOK","PER","SCH","4-chōme-29-11 Minamiōizumi, Nerima City, Tokyo 178-0064, Japan","jp_tok-p_sch_a_6","90","jp_tok-p_sch_a_6_90"
"trial","survey","64","911549","0.0-2.0-62.0","58064d91f25c440001678a10","626166b218b78fee4e9d8d4c","6261856eb66cfb6a3c5bc5b4","8","13616","","{""P0_Q0"":null,""ambiguous"":4,""objects"":4,""invisible"":5,""chaos"":3}","","","","","","","","","","","","","","","","","[]","Nerima Sakuradai Post Office","ChIJazp3ghLtGGARuc0S6p6HeSM","35.7372339","139.6605353","JP","TOK","PER","POS","2-chōme-22-14 Toyotamakami, Nerima City, Tokyo 176-0011, Japan","jp_tok-p_pos_a_5","180","jp_tok-p_pos_a_5_180"
"trial","survey","65","931910","0.0-2.0-63.0","58064d91f25c440001678a10","626166b218b78fee4e9d8d4c","6261856eb66cfb6a3c5bc5b4","8","20354","","{""P0_Q0"":null,""ambiguous"":2,""objects"":5,""invisible"":4,""chaos"":2}","","","","","","","","","","","","","","","","","[]","The Williamsburg Hotel","WVNYCTWH","40.72173","-73.95801","US","NYC","PER","HTL","96 WYTHE AVENUE, BROOKLYN, NY 11249","us_nyc-p_htl_a_high1","0","us_nyc-p_htl_a_high1_0"
"trial","survey","66","944861","0.0-2.0-64.0","58064d91f25c440001678a10","626166b218b78fee4e9d8d4c","6261856eb66cfb6a3c5bc5b4","8","12943","","{""P0_Q0"":null,""ambiguous"":3,""objects"":2,""invisible"":2,""chaos"":2}","","","","","","","","","","","","","","","","","[]","Ryōgoku Post Office","ChIJ-792HbOOGGARe1sZkDax64U","35.6954419","139.7857167","JP","TOK","CTR","POS","2-chōme-27-12 Higashinihonbashi, Chuo City, Tokyo 103-0004, Japan","jp_tok-c_pos_a_5","180","jp_tok-c_pos_a_5_180"
"trial","survey","67","956606","0.0-2.0-65.0","58064d91f25c440001678a10","626166b218b78fee4e9d8d4c","6261856eb66cfb6a3c5bc5b4","8","11737","","{""P0_Q0"":null,""ambiguous"":4,""objects"":3,""invisible"":4,""chaos"":2}","","","","","","","","","","","","","","","","","[]","Nearby location of Comfort Inn (us_chl_htl_a_low1)","ChIJ7WwDQLjOPIgRZf5dwFJ3f34","42.2988455","-84.0286729","US","CHL","CHL","HTL","1600 Commerce Park Dr STE 300, Chelsea, MI 48118, USA","us_chl_htl_b_low1","180","us_chl_htl_b_low1_180"
"trial","survey","68","980902","0.0-2.0-66.0","58064d91f25c440001678a10","626166b218b78fee4e9d8d4c","6261856eb66cfb6a3c5bc5b4","8","24289","","{""P0_Q0"":null,""ambiguous"":4,""objects"":4,""invisible"":5,""chaos"":4}","","","","","","","","","","","","","","","","","[]","Sasazuka Elementary School","ChIJ93VkemvzGGARQtwBVOaMyuk","35.6759768","139.6693391","JP","TOK","CTR","SCH","2-chōme-8-1 Sasazuka, Shibuya City, Tokyo 151-0073, Japan","jp_tok-c_sch_a_6","180","jp_tok-c_sch_a_6_180"
"trial","survey","69","993237","0.0-2.0-67.0","58064d91f25c440001678a10","626166b218b78fee4e9d8d4c","6261856eb66cfb6a3c5bc5b4","8","12328","","{""P0_Q0"":null,""ambiguous"":2,""objects"":2,""invisible"":3,""chaos"":1}","","","","","","","","","","","","","","","","","[]","Graduate Ann Arbor","GPARB348","42.28143","-83.74164","US","ARB","ARB","HTL","615 E HURON ST , ANN ARBOR, MI 48104","us_arb_htl_a_high1","0","us_arb_htl_a_high1_0"
"demographics","survey-html-form","70","1007480","0.0-2.0-68.0","58064d91f25c440001678a10","626166b218b78fee4e9d8d4c","6261856eb66cfb6a3c5bc5b4","8","14242","","{""age"":""59"",""gender"":""male"",""gender-self-describe"":"""",""zipcode"":""71112""}","","","","","","","","","","","","","","","","","","","","","","","","","","","","",""
"demographics","survey","71","1024487","0.0-2.0-69.0","58064d91f25c440001678a10","626166b218b78fee4e9d8d4c","6261856eb66cfb6a3c5bc5b4","8","16993","","{""P0_Q0"":null,""outsideUS"":""No"",""outsideUS_years"":""n/a""}","","","","","","","","","","","","","","","","","[]","","","","","","","","","","","",""
"end-survey","survey-text","72","1035488","0.0-2.0-70.0","58064d91f25c440001678a10","626166b218b78fee4e9d8d4c","6261856eb66cfb6a3c5bc5b4","8","10998","","{""Q0"":""""}","","","","","","","","","","","","","","","","","","","","","","","","","","","","",""
