"task","trial_type","trial_index","time_elapsed","internal_node_id","subject_id","study_id","session_id","group","rt","stimulus","response","width","height","webaudio","browser","browser_version","mobile","os","fullscreen","vsync_rate","webcam","microphone","success","timeout","failed_images","failed_audio","failed_video","accuracy","name","place_id","lat","lng","culture","loc1","loc2","loct","address","loc_id_prev","angle","loc_id"
"pavlovia-init","pavlovia","0","1280","0.0-0.0","565bff58c121fe0005fc390d","626166b218b78fee4e9d8d4d","626180da1337fe8d0d7855e2","5","","","","","","","","","","","","","","","","","","","","","","","","","","","","","","","",""
"consent","html-button-response","1","38723","0.0-1.0","565bff58c121fe0005fc390d","626166b218b78fee4e9d8d4d","626180da1337fe8d0d7855e2","5","37437","
        <div style=""font-size: 80%; max-width:700px"">
            <h2>Informed Consent</h2><br>
        
            <div style=""text-align: left"">
            <h3>Streetscape Perceptions</h3>
            <b>HUM00189138</b>
            <br><hr>
        
            <h4>DESCRIPTION</h4>
            <p>
                In this study, you will view Google Street View images. You will then answer questions about your impressions of the streetscapes presented in those images.
            </p><br>
        
            <h4>TIME INVOLVEMENT</h4>
            <p>Your participation will take approximately 30 minutes.</p><br>
        
            <h4>RISKS AND BENEFITS</h4>
            <p>
                The risks associated with this study are minimal. The benefits which may reasonably be expected to result from this study are none.  We cannot and do not guarantee or promise that you will receive any benefits from this study. 
            </p><br>
        
            <h4>PAYMENTS</h4>
            <p>You will be paid <b>$5.00</b> for your participation.</p><br>
        
            <h4>SUBJECT'S RIGHTS</h4>
            <p>
                If you have read this form and have decided to participate in this project, please understand your participation is voluntary and you have the right to withdraw your consent or discontinue participation at any time without penalty or loss of benefits to which you are otherwise entitled.  The alternative is not to participate.  You have the right to refuse to answer particular questions.  
            </p>
        
            <p>
                Your individual privacy will be maintained in all published and written data resulting from the study. Your responses will be kept confidential: you are given a participant code, and no one, not even the research team, can match that code with your identity. Your collected information may also be shared with other researchers as part of our dataset.
            </p><br>
        
            <h4>CONTACT INFORMATION</h4>
            <p>
                Questions: If you have any questions, concerns or complaints about this research, its procedures, risks and benefits, contact the Protocol Director, Nicholas Camp, npcamp@umich.edu, (443) 851-6783.
            </p>
        
            <p>
                If you have questions about your rights as a research participant, or wish to obtain information, ask questions or discuss any concerns about this study with someone other than the researcher(s), please contact the following:
                <br><br>
        
                University of Michigan<br>
                Health Sciences and Behavioral Sciences Institutional Review Board
                (IRB-HSBS)<br>
                2800 Plymouth Road <br>
                Building 520, Room 1169 <br>
                Ann Arbor, MI 48109-2800 <br>
                Telephone: 734-936-0933 or toll free (866) 936-0933 <br>
                Fax: 734-936-1852 <br />
                E-mail: irbhsbs@umich.edu <br>
            </p>
        
            <p>
                You can also contact the University of Michigan Compliance Hotline at 1-866-990-0111. You may also print this consent form to keep.
            </p>
            <br>
        
            <div class=""alert alert-warning""><b>
                Do you consent to participate in this study? If you consent to participate in this study, please click “Accept and continue.”
            </b></div>
            </div>
        </div>
    ","1","","","","","","","","","","","","","","","","","","","","","","","","","","","","",""
"browser-check","browser-check","2","39725","0.0-2.0-0.0","565bff58c121fe0005fc390d","626166b218b78fee4e9d8d4d","626180da1337fe8d0d7855e2","5","","","","1366","697","true","chrome","100.0.4896","false","Chrome OS","true","61.37","true","true","","","","","","","","","","","","","","","","","",""
"","preload","3","47612","0.0-2.0-1.0","565bff58c121fe0005fc390d","626166b218b78fee4e9d8d4d","626180da1337fe8d0d7855e2","5","","","","","","","","","","","","","","","true","false","[]","[]","[]","","","","","","","","","","","","",""
"instructions","html-button-response","4","73616","0.0-2.0-2.0","565bff58c121fe0005fc390d","626166b218b78fee4e9d8d4d","626180da1337fe8d0d7855e2","5","25999","
        <div class=""text-container"">
            <h1>Welcome to the study!</h1>
            
            <div class=""text-left"">
                <p>
                    In this study, we are interested in how people think about different Google Street View images. Google Street View takes pictures of streets used for Google Earth and Google Maps. You’ll see Google Street View images of different places and answer some questions about each one.
                </p>
            </div>
            
            <img src='
            https://maps.googleapis.com/maps/api/streetview?size=640x320
            &location=37.783631,-122.432766
            &heading=80
            &pitch=2
            &fov=100
            &radius=150
            &key=AIzaSyC2OxRDg6qlzZDj7j0UAD2XyE0qWokLvvs
            &source=outdoor'>
        
            <br>
        <br>
    ","0","","","","","","","","","","","","","","","","","","","","","","","","","","","","",""
"instructions","html-button-response","5","126845","0.0-2.0-3.0","565bff58c121fe0005fc390d","626166b218b78fee4e9d8d4d","626180da1337fe8d0d7855e2","5","52925","
        <style>
            img.small {
            max-width: 100px;
            }
            li {
            text-indent: 40px;
            }
        </style>

        <div class=""text-container text-left"">
            <p>For each picture, we’d like your impressions of the scene:</p>
            
            <hr>
                Are there <b>clear, distinct boundaries</b> between objects in the scene, or are the <b>boundaries ambiguous or unclear</b>?
                
                <li>clear, distinct boundaries: <img class=""small"" src=""assets/img/ambiguous-low.png""></li>
                <li>ambiguous or unclear boundaries: <img class=""small"" src=""assets/img/ambiguous-high.png""></li>
            <hr>
            <br>
                Are there <b>only a few different objects</b> in the scene, or is there <b>a large number</b>?
            <br><br>
            <hr>
                Are only <b>a few parts</b> of the scene <b>invisible or obscured</b>, or are <b>many parts invisible or obscured</b>?
                
                <li>a few parts invisible or obscured: <img class=""small"" src=""assets/img/invisible-low.png""></li>
                <li>many parts invisible or obscured: <img class=""small"" src=""assets/img/invisible-high.png""></li>
            <hr>
            <br>
                Does the scene look <b>organized</b> or <b>chaotic</b> to you?
            <br><br>
            <hr>
            
            <p>
                There are no right or wrong answers: we are interested in <b>your</b> impression. Note that some images might have individual buildings or faces blurred for privacy. Please ignore these when making your judgments.
            </p>
        </div>
        <br>
    ","0","","","","","","","","","","","","","","","","","","","","","","","","","","","","",""
"instructions","html-button-response","6","139655","0.0-2.0-4.0","565bff58c121fe0005fc390d","626166b218b78fee4e9d8d4d","626180da1337fe8d0d7855e2","5","12807","
        <div class=""text-container text-left"">
            <p>Please make sure you are doing this study in an area where you can focus and complete the survey in one sitting.</p>

            <p>Don’t spend too much time on any one picture, and, again go with your gut impression!</p>
            
            <p>The study should take about 30 minutes. We’ll let you know when you’re halfway through.</p>
        </div>
            
        <h3>Ready? Click next to get started!</h3>
        <br>
    ","0","","","","","","","","","","","","","","","","","","","","","","","","","","","","",""
"trial","survey","7","170204","0.0-2.0-5.0","565bff58c121fe0005fc390d","626166b218b78fee4e9d8d4d","626180da1337fe8d0d7855e2","5","30311","","{""P0_Q0"":null,""ambiguous"":4,""objects"":4,""invisible"":3,""chaos"":4}","","","","","","","","","","","","","","","","","[]","Nearby location of Hilton Garden Inn New York/Manhattan-Midtown East (us_nyc-c_htl_a_low2)","ChIJp7rOeORYwokR0fuDKJJiHkw","40.7579935","-73.9679168","US","NYC","CTR","HTL","223 E 54th St, New York, NY 10022, USA","us_nyc-c_htl_b_low2","0","us_nyc-c_htl_b_low2_0"
"trial","survey","8","201419","0.0-2.0-6.0","565bff58c121fe0005fc390d","626166b218b78fee4e9d8d4d","626180da1337fe8d0d7855e2","5","31176","","{""P0_Q0"":null,""ambiguous"":3,""objects"":4,""invisible"":2,""chaos"":2}","","","","","","","","","","","","","","","","","[]","BASIS Independent Manhattan","ChIJcxgyLyf2wokRA7fDLLpP4Co","40.7945131","-73.9660392","US","NYC","CTR","SCH","795 Columbus Ave, New York, NY 10025, USA","us_nyc-c_sch_a_1","180","us_nyc-c_sch_a_1_180"
"trial","survey","9","239738","0.0-2.0-7.0","565bff58c121fe0005fc390d","626166b218b78fee4e9d8d4d","626180da1337fe8d0d7855e2","5","38213","","{""P0_Q0"":null,""ambiguous"":4,""objects"":4,""invisible"":3,""chaos"":2}","","","","","","","","","","","","","","","","","[]","Nearby location of United States Postal Service (us_nyc-p_pos_a_6)","ChIJ3R3ukfxEwokRG8NgRpaxZSY","40.6042186","-73.9781935","US","NYC","PER","POS","1776 W 5th St, Brooklyn, NY 11223, USA","us_nyc-p_pos_b_6","90","us_nyc-p_pos_b_6_90"
"trial","survey","10","300371","0.0-2.0-8.0","565bff58c121fe0005fc390d","626166b218b78fee4e9d8d4d","626180da1337fe8d0d7855e2","5","60593","","{""P0_Q0"":null,""ambiguous"":3,""objects"":2,""invisible"":2,""chaos"":2}","","","","","","","","","","","","","","","","","[]","P.S. 020 John Bowne","ChIJReGEShFgwokRiwUXE2jYFz4","40.7583819","-73.8243949","US","NYC","PER","SCH","142-30 Barclay Ave, Queens, NY 11355, USA","us_nyc-p_sch_a_5","90","us_nyc-p_sch_a_5_90"
"trial","survey","11","323063","0.0-2.0-9.0","565bff58c121fe0005fc390d","626166b218b78fee4e9d8d4d","626180da1337fe8d0d7855e2","5","22659","","{""P0_Q0"":null,""ambiguous"":2,""objects"":3,""invisible"":1,""chaos"":2}","","","","","","","","","","","","","","","","","[]","Multicultural Academy","ChIJKdawbZOlPIgRLE8l7DLN_lo","42.20752","-83.700335","US","ARB","ARB","SCH","5550 Platt Rd, Ann Arbor, MI 48108, USA","us_arb_sch_a_3","270","us_arb_sch_a_3_270"
"trial","survey","12","336209","0.0-2.0-10.0","565bff58c121fe0005fc390d","626166b218b78fee4e9d8d4d","626180da1337fe8d0d7855e2","5","13105","","{""P0_Q0"":null,""ambiguous"":1,""objects"":1,""invisible"":1,""chaos"":1}","","","","","","","","","","","","","","","","","[]","United States Postal Service","ChIJbSwe0opYwokRPnmsjLkkilA","40.8276833","-73.9365073","US","NYC","CTR","POS","99 Macombs Pl, New York, NY 10039, USA","us_nyc-c_pos_a_3","180","us_nyc-c_pos_a_3_180"
"trial","survey","13","351105","0.0-2.0-11.0","565bff58c121fe0005fc390d","626166b218b78fee4e9d8d4d","626180da1337fe8d0d7855e2","5","14785","","{""P0_Q0"":null,""ambiguous"":3,""objects"":2,""invisible"":2,""chaos"":2}","","","","","","","","","","","","","","","","","[]","Fairfield Inn and Suites by Marriott New York Manhattan Times Square","FNNYCFIF","40.75652","-73.99247","US","NYC","CTR","HTL","330 WEST 40TH STREET, NEW YORK, NY 10018","us_nyc-c_htl_a_mid1","90","us_nyc-c_htl_a_mid1_90"
"trial","survey","14","374011","0.0-2.0-12.0","565bff58c121fe0005fc390d","626166b218b78fee4e9d8d4d","626180da1337fe8d0d7855e2","5","22877","","{""P0_Q0"":null,""ambiguous"":1,""objects"":2,""invisible"":2,""chaos"":1}","","","","","","","","","","","","","","","","","[]","Manually Updated Jittered SV for Nearby location of Marunouchi Center Bldg. Post Office (jp_tok-c_pos_a_8) (jp_tok-c_pos_b_8)","ChIJnUcMGviLGGAROCgXeJNX4xg","35.685418","139.762932","JP","TOK","CTR","POS","1-chōme-1 Ōtemachi, Chiyoda City, Tokyo 100-0004, Japan","jp_tok-c_pos_b_8","180","jp_tok-c_pos_b_8_180"
"trial","survey","15","393257","0.0-2.0-13.0","565bff58c121fe0005fc390d","626166b218b78fee4e9d8d4d","626180da1337fe8d0d7855e2","5","19095","","{""P0_Q0"":null,""ambiguous"":2,""objects"":2,""invisible"":1,""chaos"":3}","","","","","","","","","","","","","","","","","[]","INTERCONTINENTAL THE STRINGS","ICTYOSTR","35.62791","139.74075","JP","TOK","CTR","HTL","26 32 F SHINAGAWA EAST ONE TWR 2 16 1 KONAN, TOKYO 108 8282","jp_tok-c_htl_a_mid2","0","jp_tok-c_htl_a_mid2_0"
"trial","survey","16","412572","0.0-2.0-14.0","565bff58c121fe0005fc390d","626166b218b78fee4e9d8d4d","626180da1337fe8d0d7855e2","5","19286","","{""P0_Q0"":null,""ambiguous"":2,""objects"":2,""invisible"":1,""chaos"":1}","","","","","","","","","","","","","","","","","[]","Katsushika Higashishinkoiwa Post Office","ChIJRa6FOAeGGGAR0DyxE6La1Zw","35.7226708","139.8606781","JP","TOK","PER","POS","Japan, 〒124-0023 Tokyo, Katsushika City, Higashishinkoiwa, 3-chōme−11−１１−５ 葛飾東新小岩郵便局","jp_tok-p_pos_a_6","0","jp_tok-p_pos_a_6_0"
"trial","survey","17","428144","0.0-2.0-15.0","565bff58c121fe0005fc390d","626166b218b78fee4e9d8d4d","626180da1337fe8d0d7855e2","5","15532","","{""P0_Q0"":null,""ambiguous"":1,""objects"":1,""invisible"":1,""chaos"":1}","","","","","","","","","","","","","","","","","[]","Nihonbashi Elementary School","ChIJdXahT1CJGGARlBMGrWteCyU","35.684732","139.781385","JP","TOK","CTR","SCH","1-chōme-1-17 Nihonbashiningyōchō, Chuo City, Tokyo 103-0013, Japan","jp_tok-c_sch_a_7","90","jp_tok-c_sch_a_7_90"
"trial","survey","18","446806","0.0-2.0-16.0","565bff58c121fe0005fc390d","626166b218b78fee4e9d8d4d","626180da1337fe8d0d7855e2","5","18599","","{""P0_Q0"":null,""ambiguous"":4,""objects"":3,""invisible"":3,""chaos"":4}","","","","","","","","","","","","","","","","","[]","Math, Language and Art Elementary Math Algebra I & II Geometry PreCalculus Calculus College Math Data Analysis","ChIJt2b18g9gwokRk8pPfW8GOkc","40.762569","-73.8314318","US","NYC","PER","SCH","123 Main St, Flushing, NY 11354, USA","us_nyc-p_sch_a_2","0","us_nyc-p_sch_a_2_0"
"trial","survey","19","468272","0.0-2.0-17.0","565bff58c121fe0005fc390d","626166b218b78fee4e9d8d4d","626180da1337fe8d0d7855e2","5","21438","","{""P0_Q0"":null,""ambiguous"":4,""objects"":3,""invisible"":5,""chaos"":4}","","","","","","","","","","","","","","","","","[]","The Baltic House","XTNYC653","40.682","-73.985","US","NYC","PER","HTL","489 BALTIC STREET, BROOKLYN, NY 11217","us_nyc-p_htl_a_mid1","180","us_nyc-p_htl_a_mid1_180"
"trial","survey","20","486192","0.0-2.0-18.0","565bff58c121fe0005fc390d","626166b218b78fee4e9d8d4d","626180da1337fe8d0d7855e2","5","17892","","{""P0_Q0"":null,""ambiguous"":3,""objects"":3,""invisible"":4,""chaos"":3}","","","","","","","","","","","","","","","","","[]","Nearby location of Katsushika City Iizuka Elementary School (jp_tok-p_sch_a_3)","ChIJ1_4-r2CFGGARraiLOcCqmco","35.7780152","139.8593261","JP","TOK","PER","SCH","Japan, 〒125-0035 Tokyo, Katsushika City, Minamimizumoto, 2-chōme−28−１６ セブンツークラッシックマンション","jp_tok-p_sch_b_3","0","jp_tok-p_sch_b_3_0"
"trial","survey","21","519471","0.0-2.0-19.0","565bff58c121fe0005fc390d","626166b218b78fee4e9d8d4d","626180da1337fe8d0d7855e2","5","33250","","{""P0_Q0"":null,""ambiguous"":3,""objects"":4,""invisible"":2,""chaos"":4}","","","","","","","","","","","","","","","","","[]","Rakuten STAY HOUSE×WILLSTYLE 八幡堀","ChIJ29I3jA95AWAR_5xuRG3klyw","35.1418554","136.0963056","JP","HIK","HIK","HTL","580-6 Tagachō, Omihachiman, Shiga 523-0821, Japan","jp_hik_htl_a_high1","0","jp_hik_htl_a_high1_0"
"trial","survey","22","527292","0.0-2.0-20.0","565bff58c121fe0005fc390d","626166b218b78fee4e9d8d4d","626180da1337fe8d0d7855e2","5","7796","","{""P0_Q0"":null,""ambiguous"":1,""objects"":1,""invisible"":1,""chaos"":1}","","","","","","","","","","","","","","","","","[]","Hotel Kaito","ChIJSw_1QTuSAWARZz9bnjVtA6Q","35.3989028","136.0315856","JP","HIK","HIK","HTL","Japan, 〒520-1631 Shiga, Takashima, Imazuchō Nakoji, 1-chōme−６−１０","jp_hik_htl_a_low2","0","jp_hik_htl_a_low2_0"
"trial","survey","23","534581","0.0-2.0-21.0","565bff58c121fe0005fc390d","626166b218b78fee4e9d8d4d","626180da1337fe8d0d7855e2","5","7267","","{""P0_Q0"":null,""ambiguous"":1,""objects"":1,""invisible"":1,""chaos"":1}","","","","","","","","","","","","","","","","","[]","Torahime Post Office","ChIJAzu1m54oAmARzqXxALkD3FY","35.4195711","136.2622481","JP","TOR","TOR","POS","160-5 Gomura, Nagahama, Shiga 529-0141, Japan","jp_tor_pos_a_1","90","jp_tor_pos_a_1_90"
"trial","survey","24","545420","0.0-2.0-22.0","565bff58c121fe0005fc390d","626166b218b78fee4e9d8d4d","626180da1337fe8d0d7855e2","5","10809","","{""P0_Q0"":null,""ambiguous"":3,""objects"":2,""invisible"":2,""chaos"":3}","","","","","","","","","","","","","","","","","[]","Yotsuya Station Post Office","ChIJM8cHVYqMGGARUz2wtp-skCo","35.6875819","139.7296034","JP","TOK","CTR","POS","Japan, 〒160-0004 Tokyo, Shinjuku City, Yotsuya, 1-chōme−６−１","jp_tok-c_pos_a_3","270","jp_tok-c_pos_a_3_270"
"trial","survey","25","557981","0.0-2.0-23.0","565bff58c121fe0005fc390d","626166b218b78fee4e9d8d4d","626180da1337fe8d0d7855e2","5","12539","","{""P0_Q0"":null,""ambiguous"":1,""objects"":1,""invisible"":1,""chaos"":2}","","","","","","","","","","","","","","","","","[]","Red Roof PLUS Ann Arbor-Univ North","RFARB045","42.30672","-83.69025","US","ARB","ARB","HTL","3621 PLYMOUTH ROAD, ANN ARBOR, MI 48105","us_arb_htl_a_low1","270","us_arb_htl_a_low1_270"
"trial","survey","26","570586","0.0-2.0-24.0","565bff58c121fe0005fc390d","626166b218b78fee4e9d8d4d","626180da1337fe8d0d7855e2","5","12581","","{""P0_Q0"":null,""ambiguous"":1,""objects"":1,""invisible"":1,""chaos"":1}","","","","","","","","","","","","","","","","","[]","Nearby location of HOTEL K5 (jp_tok-c_htl_a_mid1)","ChIJb-Z94FCJGGARIe-5JBrSwok","35.6841632","139.7792313","JP","TOK","CTR","HTL","19-12 Nihonbashikoamichō, Chuo City, Tokyo 103-0016, Japan","jp_tok-c_htl_b_mid1","90","jp_tok-c_htl_b_mid1_90"
"trial","survey","27","593243","0.0-2.0-25.0","565bff58c121fe0005fc390d","626166b218b78fee4e9d8d4d","626180da1337fe8d0d7855e2","5","22629","","{""P0_Q0"":null,""ambiguous"":2,""objects"":3,""invisible"":1,""chaos"":2}","","","","","","","","","","","","","","","","","[]","Nakano Sun Cuore Post Office","ChIJcTw2u5DyGGAReXXGTvjxlhw","35.7089211","139.6647475","JP","TOK","PER","POS","Japan, 〒164-0001 Tokyo, Nakano City, Nakano, 4-chōme−3−１ 地下１階","jp_tok-p_pos_a_2","90","jp_tok-p_pos_a_2_90"
"trial","survey","28","610181","0.0-2.0-26.0","565bff58c121fe0005fc390d","626166b218b78fee4e9d8d4d","626180da1337fe8d0d7855e2","5","16822","","{""P0_Q0"":null,""ambiguous"":4,""objects"":3,""invisible"":3,""chaos"":4}","","","","","","","","","","","","","","","","","[]","Katsushika Higashishinkoiwa Post Office","ChIJRa6FOAeGGGAR0DyxE6La1Zw","35.7226708","139.8606781","JP","TOK","PER","POS","Japan, 〒124-0023 Tokyo, Katsushika City, Higashishinkoiwa, 3-chōme−11−１１−５ 葛飾東新小岩郵便局","jp_tok-p_pos_a_6","90","jp_tok-p_pos_a_6_90"
"trial","survey","29","622675","0.0-2.0-27.0","565bff58c121fe0005fc390d","626166b218b78fee4e9d8d4d","626180da1337fe8d0d7855e2","5","12470","","{""P0_Q0"":null,""ambiguous"":4,""objects"":4,""invisible"":4,""chaos"":3}","","","","","","","","","","","","","","","","","[]","Nearby location of United States Postal Service (us_nyc-p_pos_a_6)","ChIJ3R3ukfxEwokRG8NgRpaxZSY","40.6042186","-73.9781935","US","NYC","PER","POS","1776 W 5th St, Brooklyn, NY 11223, USA","us_nyc-p_pos_b_6","180","us_nyc-p_pos_b_6_180"
"trial","survey","30","642059","0.0-2.0-28.0","565bff58c121fe0005fc390d","626166b218b78fee4e9d8d4d","626180da1337fe8d0d7855e2","5","19358","","{""P0_Q0"":null,""ambiguous"":2,""objects"":1,""invisible"":1,""chaos"":1}","","","","","","","","","","","","","","","","","[]","Nearby location of South Meadows Elementary School (us_chl_sch_a_1)","ChIJFQ7Lva7OPIgR_c0d98fxzFI","42.3109393","-84.0229592","US","CHL","CHL","SCH","511 Maywood St, Chelsea, MI 48118, USA","us_chl_sch_b_1","90","us_chl_sch_b_1_90"
"trial","survey","31","667263","0.0-2.0-29.0","565bff58c121fe0005fc390d","626166b218b78fee4e9d8d4d","626180da1337fe8d0d7855e2","5","25163","","{""P0_Q0"":null,""ambiguous"":2,""objects"":1,""invisible"":3,""chaos"":3}","","","","","","","","","","","","","","","","","[]","びわ湖畔リゾート 白浜荘","ChIJIeJgVfibAWAR-Jd7lsdIM-M","35.3054063","136.0367666","JP","HIK","HIK","HTL","2300-1 Adogawachō Shimoogawa, Takashima, Shiga 520-1223, Japan","jp_hik_htl_a_mid2","0","jp_hik_htl_a_mid2_0"
"trial","survey","32","685003","0.0-2.0-30.0","565bff58c121fe0005fc390d","626166b218b78fee4e9d8d4d","626180da1337fe8d0d7855e2","5","17715","","{""P0_Q0"":null,""ambiguous"":1,""objects"":1,""invisible"":1,""chaos"":1}","","","","","","","","","","","","","","","","","[]","United States Postal Service","ChIJHz5qxfxEwokRJQRRKHqw9JQ","40.6054665","-73.9794117","US","NYC","PER","POS","1714 W 6th St Ste 1, Brooklyn, NY 11223, USA","us_nyc-p_pos_a_6","90","us_nyc-p_pos_a_6_90"
"trial","survey","33","708273","0.0-2.0-31.0","565bff58c121fe0005fc390d","626166b218b78fee4e9d8d4d","626180da1337fe8d0d7855e2","5","23149","","{""P0_Q0"":null,""ambiguous"":3,""objects"":3,""invisible"":3,""chaos"":2}","","","","","","","","","","","","","","","","","[]","Nearby location of Sandy Hook CenTer (us_nyc-c_sch_a_4)","ChIJVVVgOJFZwokRN9n4QjPq_Dc","40.731952","-73.999183","US","NYC","CTR","SCH","31 Washington Square W, New York, NY 10011, USA","us_nyc-c_sch_b_4","180","us_nyc-c_sch_b_4_180"
"trial","survey","34","780451","0.0-2.0-32.0","565bff58c121fe0005fc390d","626166b218b78fee4e9d8d4d","626180da1337fe8d0d7855e2","5","72141","","{""P0_Q0"":null,""ambiguous"":5,""objects"":5,""invisible"":4,""chaos"":4}","","","","","","","","","","","","","","","","","[]","Nearby location of 3rd Haketa Elementary School (jp_tok-p_sch_a_1)","ChIJj82HZcOPGGARdlxKpMVK0K8","35.7349985","139.787222","JP","TOK","PER","SCH","Japan, 〒116-0002 Tokyo, Arakawa City, Arakawa, 1-chōme−26−１ ＮＴＴ ビル 本館1階","jp_tok-p_sch_b_1","180","jp_tok-p_sch_b_1_180"
"trial","survey","35","794750","0.0-2.0-33.0","565bff58c121fe0005fc390d","626166b218b78fee4e9d8d4d","626180da1337fe8d0d7855e2","5","14274","","{""P0_Q0"":null,""ambiguous"":1,""objects"":1,""invisible"":1,""chaos"":2}","","","","","","","","","","","","","","","","","[]","THOMPSON CENTRAL PARK - NEW YORK","HYNYCPAH","40.76418","-73.97855","US","NYC","CTR","HTL","119 WEST 56 STREET, NEW YORK, NY 10019","us_nyc-c_htl_a_high2","180","us_nyc-c_htl_a_high2_180"
"trial","survey","36","815293","0.0-2.0-34.0","565bff58c121fe0005fc390d","626166b218b78fee4e9d8d4d","626180da1337fe8d0d7855e2","5","20516","","{""P0_Q0"":null,""ambiguous"":1,""objects"":2,""invisible"":2,""chaos"":3}","","","","","","","","","","","","","","","","","[]","Nearby location of Kanponoyado Hikone (jp_hik_htl_a_mid1)","ChIJ52LxtyYrAmARRzLfR851uZY","35.2879027","136.2510942","JP","HIK","HIK","HTL","1090 Matsubarachō, Hikone, Shiga 522-0002, Japan","jp_hik_htl_b_mid1","0","jp_hik_htl_b_mid1_0"
"half-way","html-button-response","37","821698","0.0-2.0-35.0","565bff58c121fe0005fc390d","626166b218b78fee4e9d8d4d","626180da1337fe8d0d7855e2","5","6400","
            <h3>You are now half way through the study.</h3>
            <p>Please take a quick, 15-second break before you continue.</p>
            <img src='assets/img/countdown-15.gif'>
            <p>The study will automatically advance forward after the countdown is complete. However, you may click ""Next"" to advance forward now if you wish.</p>
        ","0","","","","","","","","","","","","","","","","","","","","","","","","","","","","",""
"attention-check","survey","38","829405","0.0-2.0-36.0","565bff58c121fe0005fc390d","626166b218b78fee4e9d8d4d","626180da1337fe8d0d7855e2","5","7683","","{""P0_Q0"":null,""ambiguous"":null,""objects"":null,""invisible"":null,""chaos"":null}","","","","","","","","","","","","","","","","","[]","","","","","","","","","","","",""
"trial","survey","39","837243","0.0-2.0-37.0","565bff58c121fe0005fc390d","626166b218b78fee4e9d8d4d","626180da1337fe8d0d7855e2","5","7820","","{""P0_Q0"":null,""ambiguous"":1,""objects"":1,""invisible"":1,""chaos"":1}","","","","","","","","","","","","","","","","","[]","Nearby location of TownePlace Suites by Marriott Ann Arbor (us_arb_htl_a_mid1)","ChIJ71gCcu-vPIgRi_B5Ob5B76o","42.2367203","-83.7509139","US","ARB","ARB","HTL","1126 Lariat Loop, Ann Arbor, MI 48108, USA","us_arb_htl_b_mid1","270","us_arb_htl_b_mid1_270"
"trial","survey","40","844011","0.0-2.0-38.0","565bff58c121fe0005fc390d","626166b218b78fee4e9d8d4d","626180da1337fe8d0d7855e2","5","6746","","{""P0_Q0"":null,""ambiguous"":1,""objects"":1,""invisible"":1,""chaos"":1}","","","","","","","","","","","","","","","","","[]","Nearby location of Aijitsu Elementary School (jp_tok-c_sch_a_5)","ChIJn0gJcliMGGARx62E3ARcjRI","35.6987116","139.7326211","JP","TOK","CTR","SCH","2-8 Saikumachi, Shinjuku City, Tokyo 162-0838, Japan","jp_tok-c_sch_b_5","270","jp_tok-c_sch_b_5_270"
"trial","survey","41","861601","0.0-2.0-39.0","565bff58c121fe0005fc390d","626166b218b78fee4e9d8d4d","626180da1337fe8d0d7855e2","5","17534","","{""P0_Q0"":null,""ambiguous"":2,""objects"":3,""invisible"":2,""chaos"":3}","","","","","","","","","","","","","","","","","[]","United States Postal Service","ChIJ00vgwVlDwokRCNivb7JW25o","40.6153779","-73.9292541","US","NYC","PER","POS","2222 Flatbush Ave, Brooklyn, NY 11234, USA","us_nyc-p_pos_a_3","0","us_nyc-p_pos_a_3_0"
"trial","survey","42","890228","0.0-2.0-40.0","565bff58c121fe0005fc390d","626166b218b78fee4e9d8d4d","626180da1337fe8d0d7855e2","5","28495","","{""P0_Q0"":null,""ambiguous"":3,""objects"":2,""invisible"":2,""chaos"":4}","","","","","","","","","","","","","","","","","[]","United States Postal Service","ChIJQ1Dpq1hYwokRhUTtnxqbRIw","40.7696441","-73.9833283","US","NYC","CTR","POS","27 W 60th St, New York, NY 10023, USA","us_nyc-c_pos_a_6","90","us_nyc-c_pos_a_6_90"
"trial","survey","43","906382","0.0-2.0-41.0","565bff58c121fe0005fc390d","626166b218b78fee4e9d8d4d","626180da1337fe8d0d7855e2","5","16129","","{""P0_Q0"":null,""ambiguous"":2,""objects"":1,""invisible"":1,""chaos"":1}","","","","","","","","","","","","","","","","","[]","Nearby location of Red Roof PLUS Ann Arbor-Univ North (us_arb_htl_a_low1)","ChIJDRKdQxqsPIgRu07gYIBr9Ds","42.3074995","-83.6914727","US","ARB","ARB","HTL","2310 Green Rd, Ann Arbor, MI 48105, USA","us_arb_htl_b_low1","0","us_arb_htl_b_low1_0"
"trial","survey","44","929471","0.0-2.0-42.0","565bff58c121fe0005fc390d","626166b218b78fee4e9d8d4d","626180da1337fe8d0d7855e2","5","23031","","{""P0_Q0"":null,""ambiguous"":3,""objects"":4,""invisible"":4,""chaos"":5}","","","","","","","","","","","","","","","","","[]","Hotel JAL City Tokyo Toyosu","NKTYOHJC","35.68408","139.80885","JP","TOK","PER","HTL","6 4 20 TOYOSU KOTO KU, TOKYO 1350061","jp_tok-p_htl_a_mid1","270","jp_tok-p_htl_a_mid1_270"
"trial","survey","45","937624","0.0-2.0-43.0","565bff58c121fe0005fc390d","626166b218b78fee4e9d8d4d","626180da1337fe8d0d7855e2","5","8126","","{""P0_Q0"":null,""ambiguous"":1,""objects"":1,""invisible"":1,""chaos"":1}","","","","","","","","","","","","","","","","","[]","Nearby location of United States Postal Service (us_nyc-c_pos_a_6)","ChIJ63f0hz9ZwokRTruThu3Ng6s","40.7682731","-73.9822808","US","NYC","CTR","POS","15 Columbus Cir, New York, NY 10019, USA","us_nyc-c_pos_b_6","270","us_nyc-c_pos_b_6_270"
"trial","survey","46","968139","0.0-2.0-44.0","565bff58c121fe0005fc390d","626166b218b78fee4e9d8d4d","626180da1337fe8d0d7855e2","5","30466","","{""P0_Q0"":null,""ambiguous"":3,""objects"":3,""invisible"":3,""chaos"":4}","","","","","","","","","","","","","","","","","[]","Nearby location of Waseda Daigaku-mae Post Office (jp_hik_pos_a_4)","ChIJ3fFikwKNGGARdbidMhgiTgs","35.7066137","139.7233789","JP","HIK","HIK","POS","508 Wasedatsurumakichō, Shinjuku City, Tokyo 162-0041, Japan","jp_hik_pos_b_4","0","jp_hik_pos_b_4_0"
"trial","survey","47","983186","0.0-2.0-45.0","565bff58c121fe0005fc390d","626166b218b78fee4e9d8d4d","626180da1337fe8d0d7855e2","5","14924","","{""P0_Q0"":null,""ambiguous"":2,""objects"":2,""invisible"":2,""chaos"":2}","","","","","","","","","","","","","","","","","[]","Kotō 3rd Elementary School","ChIJyWBTvO3XA2ARubFCKa9mR4A","35.130888","136.225113","JP","HIK","HIK","SCH","340 Kotakarichō, Higashiomi, Shiga 527-0125, Japan","jp_hik_sch_a_3","270","jp_hik_sch_a_3_270"
"trial","survey","48","998191","0.0-2.0-46.0","565bff58c121fe0005fc390d","626166b218b78fee4e9d8d4d","626180da1337fe8d0d7855e2","5","14951","","{""P0_Q0"":null,""ambiguous"":1,""objects"":1,""invisible"":1,""chaos"":1}","","","","","","","","","","","","","","","","","[]","長浜BGホテル","ChIJybhHhispAmARj0lscxsbskI","35.391991","136.282838","JP","TOR","TOR","HTL","300 Kawasakichō, Nagahama, Shiga 526-0846, Japan","jp_tor_htl_a_mid1","0","jp_tor_htl_a_mid1_0"
"trial","survey","49","1036856","0.0-2.0-47.0","565bff58c121fe0005fc390d","626166b218b78fee4e9d8d4d","626180da1337fe8d0d7855e2","5","38634","","{""P0_Q0"":null,""ambiguous"":1,""objects"":2,""invisible"":1,""chaos"":1}","","","","","","","","","","","","","","","","","[]","Math, Language and Art Elementary Math Algebra I & II Geometry PreCalculus Calculus College Math Data Analysis","ChIJt2b18g9gwokRk8pPfW8GOkc","40.762569","-73.8314318","US","NYC","PER","SCH","123 Main St, Flushing, NY 11354, USA","us_nyc-p_sch_a_2","90","us_nyc-p_sch_a_2_90"
"trial","survey","50","1048494","0.0-2.0-48.0","565bff58c121fe0005fc390d","626166b218b78fee4e9d8d4d","626180da1337fe8d0d7855e2","5","11609","","{""P0_Q0"":null,""ambiguous"":1,""objects"":1,""invisible"":2,""chaos"":1}","","","","","","","","","","","","","","","","","[]","Nearby location of Jonan Daini Elementary School (jp_tok-p_sch_a_5)","ChIJ2To8y2-KGGARuI3U_BCg3Sg","35.614051","139.744792","JP","TOK","PER","SCH","2-chōme-15-6 Minamishinagawa, Shinagawa City, Tokyo 140-0004, Japan","jp_tok-p_sch_b_5","180","jp_tok-p_sch_b_5_180"
"trial","survey","51","1066982","0.0-2.0-49.0","565bff58c121fe0005fc390d","626166b218b78fee4e9d8d4d","626180da1337fe8d0d7855e2","5","18393","","{""P0_Q0"":null,""ambiguous"":4,""objects"":3,""invisible"":4,""chaos"":4}","","","","","","","","","","","","","","","","","[]","Nearby location of Sakata Elementary School (jp_hik_sch_a_4)","ChIJBzK5RHYsAmARdmisGXiOTX0","35.3390583","136.2876793","JP","HIK","HIK","SCH","528 Ukano, Maibara, Shiga 521-0062, Japan","jp_hik_sch_b_4","180","jp_hik_sch_b_4_180"
"trial","survey","52","1085565","0.0-2.0-50.0","565bff58c121fe0005fc390d","626166b218b78fee4e9d8d4d","626180da1337fe8d0d7855e2","5","18545","","{""P0_Q0"":null,""ambiguous"":2,""objects"":1,""invisible"":1,""chaos"":1}","","","","","","","","","","","","","","","","","[]","Nearby location of Mukaihara Elementary School (jp_tok-p_sch_a_4)","ChIJVRTxz0jtGGAR3d5pAzj-FQQ","35.7402285","139.6828032","JP","TOK","PER","SCH","2-chōme-7-6 Mukaihara, Itabashi City, Tokyo 173-0036, Japan","jp_tok-p_sch_b_4","270","jp_tok-p_sch_b_4_270"
"trial","survey","53","1093137","0.0-2.0-51.0","565bff58c121fe0005fc390d","626166b218b78fee4e9d8d4d","626180da1337fe8d0d7855e2","5","7541","","{""P0_Q0"":null,""ambiguous"":1,""objects"":1,""invisible"":1,""chaos"":1}","","","","","","","","","","","","","","","","","[]","Manually Updated Days Inn by Wyndham Ann Arbor","DIARB238","42.252588","-83.680721","US","ARB","ARB","HTL","2380 CARPENTER ROAD, ANN ARBOR, MI 48108","us_arb_htl_a_low2","0","us_arb_htl_a_low2_0"
"trial","survey","54","1101819","0.0-2.0-52.0","565bff58c121fe0005fc390d","626166b218b78fee4e9d8d4d","626180da1337fe8d0d7855e2","5","8630","","{""P0_Q0"":null,""ambiguous"":1,""objects"":1,""invisible"":1,""chaos"":1}","","","","","","","","","","","","","","","","","[]","Nakano Shirasagi Post Office","ChIJxY70cpHtGGARm_OCTi5pxck","35.719125","139.6361439","JP","TOK","PER","POS","2-chōme-35-12 Shirasagi, Nakano City, Tokyo 165-0035, Japan","jp_tok-p_pos_a_3","180","jp_tok-p_pos_a_3_180"
"trial","survey","55","1117094","0.0-2.0-53.0","565bff58c121fe0005fc390d","626166b218b78fee4e9d8d4d","626180da1337fe8d0d7855e2","5","15254","","{""P0_Q0"":null,""ambiguous"":1,""objects"":2,""invisible"":2,""chaos"":2}","","","","","","","","","","","","","","","","","[]","Nearby location of Hotel JAL City Tokyo Toyosu (jp_tok-p_htl_a_mid1)","ChIJhxfMYB-JGGARzU1jFMgKRZ8","35.684968","139.8100484","JP","TOK","PER","HTL","1-chōme-1-7 Sarue, Koto City, Tokyo 135-0003, Japan","jp_tok-p_htl_b_mid1","180","jp_tok-p_htl_b_mid1_180"
"trial","survey","56","1134456","0.0-2.0-54.0","565bff58c121fe0005fc390d","626166b218b78fee4e9d8d4d","626180da1337fe8d0d7855e2","5","17317","","{""P0_Q0"":null,""ambiguous"":3,""objects"":3,""invisible"":2,""chaos"":3}","","","","","","","","","","","","","","","","","[]","Manually Updated Jittered SV for Nearby location of The Tokyo Station Hotel (jp_tok-c_htl_a_high2) (jp_tok-c_htl_b_high2)","ChIJYczFnPyLGGARpA9nubZ6QGc","35.67883","139.768186","JP","TOK","CTR","HTL","Tokyo Sta. Yaesuguchi(Yaesu Exit), 2-chōme-3 Yaesu, Chuo City, Tokyo 104-0028, Japan","jp_tok-c_htl_b_high2","0","jp_tok-c_htl_b_high2_0"
"trial","survey","57","1144873","0.0-2.0-55.0","565bff58c121fe0005fc390d","626166b218b78fee4e9d8d4d","626180da1337fe8d0d7855e2","5","10348","","{""P0_Q0"":null,""ambiguous"":1,""objects"":1,""invisible"":1,""chaos"":1}","","","","","","","","","","","","","","","","","[]","Comfort Inn JFK Airport","CINYC672","40.66585","-73.80762","US","NYC","PER","HTL","132-15 NASSAU EXPRESSWAY, JAMAICA, NY 11430","us_nyc-p_htl_a_low2","180","us_nyc-p_htl_a_low2_180"
"trial","survey","58","1151884","0.0-2.0-56.0","565bff58c121fe0005fc390d","626166b218b78fee4e9d8d4d","626180da1337fe8d0d7855e2","5","6988","","{""P0_Q0"":null,""ambiguous"":1,""objects"":1,""invisible"":1,""chaos"":1}","","","","","","","","","","","","","","","","","[]","Nearby location of HOTEL K5 (jp_tok-c_htl_a_mid1)","ChIJb-Z94FCJGGARIe-5JBrSwok","35.6841632","139.7792313","JP","TOK","CTR","HTL","19-12 Nihonbashikoamichō, Chuo City, Tokyo 103-0016, Japan","jp_tok-c_htl_b_mid1","0","jp_tok-c_htl_b_mid1_0"
"trial","survey","59","1189742","0.0-2.0-57.0","565bff58c121fe0005fc390d","626166b218b78fee4e9d8d4d","626180da1337fe8d0d7855e2","5","37829","","{""P0_Q0"":null,""ambiguous"":3,""objects"":3,""invisible"":2,""chaos"":3}","","","","","","","","","","","","","","","","","[]","Nearby location of The Pearl NYC (us_nyc-c_htl_a_high1)","ChIJH25PJ-dZwokRj_-5BHZLdE0","40.7600987","-73.9843757","US","NYC","CTR","HTL","1596 Broadway, New York, NY 10019, USA","us_nyc-c_htl_b_high1","270","us_nyc-c_htl_b_high1_270"
"trial","survey","60","1210722","0.0-2.0-58.0","565bff58c121fe0005fc390d","626166b218b78fee4e9d8d4d","626180da1337fe8d0d7855e2","5","20960","","{""P0_Q0"":null,""ambiguous"":4,""objects"":3,""invisible"":4,""chaos"":4}","","","","","","","","","","","","","","","","","[]","Nearby location of Math, Language and Art Elementary Math Algebra I & II Geometry PreCalculus Calculus College Math Data Analysis (us_nyc-p_sch_a_2)","ChIJrTWRtBpgwokRN4EStLSswiQ","40.7637342","-73.8299598","US","NYC","PER","SCH","137-35 Northern Blvd, Queens, NY 11354, USA","us_nyc-p_sch_b_2","180","us_nyc-p_sch_b_2_180"
"trial","survey","61","1221075","0.0-2.0-59.0","565bff58c121fe0005fc390d","626166b218b78fee4e9d8d4d","626180da1337fe8d0d7855e2","5","10333","","{""P0_Q0"":null,""ambiguous"":1,""objects"":1,""invisible"":1,""chaos"":1}","","","","","","","","","","","","","","","","","[]","Nearby location of Success Academy Harlem 5 (us_nyc-c_sch_a_2)","ChIJT3PK4nr2wokRoJ2P1lBcwyQ","40.8213713","-73.9455112","US","NYC","CTR","SCH","351 W 141st St, New York, NY 10030, USA","us_nyc-c_sch_b_2","180","us_nyc-c_sch_b_2_180"
"trial","survey","62","1243789","0.0-2.0-60.0","565bff58c121fe0005fc390d","626166b218b78fee4e9d8d4d","626180da1337fe8d0d7855e2","5","22623","","{""P0_Q0"":null,""ambiguous"":4,""objects"":1,""invisible"":5,""chaos"":3}","","","","","","","","","","","","","","","","","[]","United States Postal Service","ChIJ00vgwVlDwokRCNivb7JW25o","40.6153779","-73.9292541","US","NYC","PER","POS","2222 Flatbush Ave, Brooklyn, NY 11234, USA","us_nyc-p_pos_a_3","270","us_nyc-p_pos_a_3_270"
"trial","survey","63","1257323","0.0-2.0-61.0","565bff58c121fe0005fc390d","626166b218b78fee4e9d8d4d","626180da1337fe8d0d7855e2","5","13509","","{""P0_Q0"":null,""ambiguous"":2,""objects"":1,""invisible"":1,""chaos"":1}","","","","","","","","","","","","","","","","","[]","United States Postal Service","ChIJZSVRGDq7PIgRlo_a8I0Tib8","42.1718067","-83.7735227","US","ARB","ARB","POS","108 N Maple Rd, Saline, MI 48176, USA","us_arb_pos_a_1","270","us_arb_pos_a_1_270"
"trial","survey","64","1266043","0.0-2.0-62.0","565bff58c121fe0005fc390d","626166b218b78fee4e9d8d4d","626180da1337fe8d0d7855e2","5","8676","","{""P0_Q0"":null,""ambiguous"":1,""objects"":1,""invisible"":1,""chaos"":1}","","","","","","","","","","","","","","","","","[]","Nearby location of United States Postal Service (us_arb_pos_a_1)","ChIJyxaGSDe7PIgRdsmUdk5LYuo","42.1703237","-83.7718728","US","ARB","ARB","POS","450 E Michigan Ave, Saline, MI 48176, USA","us_arb_pos_b_1","0","us_arb_pos_b_1_0"
"trial","survey","65","1274357","0.0-2.0-63.0","565bff58c121fe0005fc390d","626166b218b78fee4e9d8d4d","626180da1337fe8d0d7855e2","5","8206","","{""P0_Q0"":null,""ambiguous"":1,""objects"":2,""invisible"":1,""chaos"":1}","","","","","","","","","","","","","","","","","[]","Manually Updated Days Inn by Wyndham Ann Arbor","DIARB238","42.252588","-83.680721","US","ARB","ARB","HTL","2380 CARPENTER ROAD, ANN ARBOR, MI 48108","us_arb_htl_a_low2","270","us_arb_htl_a_low2_270"
"trial","survey","66","1286345","0.0-2.0-64.0","565bff58c121fe0005fc390d","626166b218b78fee4e9d8d4d","626180da1337fe8d0d7855e2","5","11881","","{""P0_Q0"":null,""ambiguous"":5,""objects"":3,""invisible"":5,""chaos"":5}","","","","","","","","","","","","","","","","","[]","Nakano Shirasagi Post Office","ChIJxY70cpHtGGARm_OCTi5pxck","35.719125","139.6361439","JP","TOK","PER","POS","2-chōme-35-12 Shirasagi, Nakano City, Tokyo 165-0035, Japan","jp_tok-p_pos_a_3","0","jp_tok-p_pos_a_3_0"
"trial","survey","67","1306047","0.0-2.0-65.0","565bff58c121fe0005fc390d","626166b218b78fee4e9d8d4d","626180da1337fe8d0d7855e2","5","19628","","{""P0_Q0"":null,""ambiguous"":5,""objects"":4,""invisible"":5,""chaos"":4}","","","","","","","","","","","","","","","","","[]","Nearby location of Tokyo High Court Post Office (jp_tok-c_pos_a_1)","ChIJX7W2HiiLGGARCTbu8qla3Mw","35.6737726","139.7542634","JP","TOK","CTR","POS","1 Hibiyakoen, Chiyoda City, Tokyo 100-0012, Japan","jp_tok-c_pos_b_1","0","jp_tok-c_pos_b_1_0"
"trial","survey","68","1329689","0.0-2.0-66.0","565bff58c121fe0005fc390d","626166b218b78fee4e9d8d4d","626180da1337fe8d0d7855e2","5","23614","","{""P0_Q0"":null,""ambiguous"":1,""objects"":1,""invisible"":1,""chaos"":2}","","","","","","","","","","","","","","","","","[]","Mandarin Oriental New York","MONYCMO1","40.7689","-73.98305","US","NYC","CTR","HTL","80  COLUMBUS CIRCLE AT 60TH STREET, NEW YORK, NY 10023","us_nyc-c_htl_a_ultra1","180","us_nyc-c_htl_a_ultra1_180"
"trial","survey","69","1355215","0.0-2.0-67.0","565bff58c121fe0005fc390d","626166b218b78fee4e9d8d4d","626180da1337fe8d0d7855e2","5","25502","","{""P0_Q0"":null,""ambiguous"":3,""objects"":3,""invisible"":3,""chaos"":2}","","","","","","","","","","","","","","","","","[]","Flexstay Inn Shinagawa","HSTYOAIW","35.62213","139.7401","JP","TOK","PER","HTL","1-22-19, KITASHINAGAWA, TOKYO 140-0001","jp_tok-p_htl_a_mid2","0","jp_tok-p_htl_a_mid2_0"
"demographics","survey-html-form","70","1364003","0.0-2.0-68.0","565bff58c121fe0005fc390d","626166b218b78fee4e9d8d4d","626180da1337fe8d0d7855e2","5","8782","","{""age"":""41"",""gender"":""female"",""gender-self-describe"":"""",""zipcode"":""27105""}","","","","","","","","","","","","","","","","","","","","","","","","","","","","",""
"demographics","survey","71","1370464","0.0-2.0-69.0","565bff58c121fe0005fc390d","626166b218b78fee4e9d8d4d","626180da1337fe8d0d7855e2","5","6405","","{""P0_Q0"":null,""outsideUS"":""No"",""outsideUS_years"":""""}","","","","","","","","","","","","","","","","","[]","","","","","","","","","","","",""
"end-survey","survey-text","72","1376507","0.0-2.0-70.0","565bff58c121fe0005fc390d","626166b218b78fee4e9d8d4d","626180da1337fe8d0d7855e2","5","6017","","{""Q0"":""""}","","","","","","","","","","","","","","","","","","","","","","","","","","","","",""
