"task","trial_type","trial_index","time_elapsed","internal_node_id","subject_id","study_id","session_id","group","rt","stimulus","response","width","height","webaudio","browser","browser_version","mobile","os","fullscreen","vsync_rate","webcam","microphone","success","timeout","failed_images","failed_audio","failed_video","accuracy","name","place_id","lat","lng","culture","loc1","loc2","loct","address","loc_id_prev","angle","loc_id"
"pavlovia-init","pavlovia","0","1898","0.0-0.0","5a6cfad8ab58b500015f56ef","625e209c10a247530e1c6964","625eeb4d5b63079208199a9b","3","","","","","","","","","","","","","","","","","","","","","","","","","","","","","","","",""
"consent","html-button-response","1","88559","0.0-1.0","5a6cfad8ab58b500015f56ef","625e209c10a247530e1c6964","625eeb4d5b63079208199a9b","3","86658","
        <div style=""font-size: 80%; max-width:700px"">
            <h2>Informed Consent</h2><br>
        
            <div style=""text-align: left"">
            <h3>Streetscape Perceptions</h3>
            <b>HUM00189138</b>
            <br><hr>
        
            <h4>DESCRIPTION</h4>
            <p>
                In this study, you will view Google Street View images. You will then answer questions about your impressions of the streetscapes presented in those images.
            </p><br>
        
            <h4>TIME INVOLVEMENT</h4>
            <p>Your participation will take approximately 30 minutes.</p><br>
        
            <h4>RISKS AND BENEFITS</h4>
            <p>
                The risks associated with this study are minimal. The benefits which may reasonably be expected to result from this study are none.  We cannot and do not guarantee or promise that you will receive any benefits from this study. 
            </p><br>
        
            <h4>PAYMENTS</h4>
            <p>You will be paid <b>$5.00</b> for your participation.</p><br>
        
            <h4>SUBJECT'S RIGHTS</h4>
            <p>
                If you have read this form and have decided to participate in this project, please understand your participation is voluntary and you have the right to withdraw your consent or discontinue participation at any time without penalty or loss of benefits to which you are otherwise entitled.  The alternative is not to participate.  You have the right to refuse to answer particular questions.  
            </p>
        
            <p>
                Your individual privacy will be maintained in all published and written data resulting from the study. Your responses will be kept confidential: you are given a participant code, and no one, not even the research team, can match that code with your identity. Your collected information may also be shared with other researchers as part of our dataset.
            </p><br>
        
            <h4>CONTACT INFORMATION</h4>
            <p>
                Questions: If you have any questions, concerns or complaints about this research, its procedures, risks and benefits, contact the Protocol Director, Nicholas Camp, npcamp@umich.edu, (443) 851-6783.
            </p>
        
            <p>
                If you have questions about your rights as a research participant, or wish to obtain information, ask questions or discuss any concerns about this study with someone other than the researcher(s), please contact the following:
                <br><br>
        
                University of Michigan<br>
                Health Sciences and Behavioral Sciences Institutional Review Board
                (IRB-HSBS)<br>
                2800 Plymouth Road <br>
                Building 520, Room 1169 <br>
                Ann Arbor, MI 48109-2800 <br>
                Telephone: 734-936-0933 or toll free (866) 936-0933 <br>
                Fax: 734-936-1852 <br />
                E-mail: irbhsbs@umich.edu <br>
            </p>
        
            <p>
                You can also contact the University of Michigan Compliance Hotline at 1-866-990-0111. You may also print this consent form to keep.
            </p>
            <br>
        
            <div class=""alert alert-warning""><b>
                Do you consent to participate in this study? If you consent to participate in this study, please click “Accept and continue.”
            </b></div>
            </div>
        </div>
    ","1","","","","","","","","","","","","","","","","","","","","","","","","","","","","",""
"browser-check","browser-check","2","89544","0.0-2.0-0.0","5a6cfad8ab58b500015f56ef","625e209c10a247530e1c6964","625eeb4d5b63079208199a9b","3","","","","1920","969","true","chrome","100.0.4896","false","Windows 10","true","61.27","false","true","","","","","","","","","","","","","","","","","",""
"","preload","3","91057","0.0-2.0-1.0","5a6cfad8ab58b500015f56ef","625e209c10a247530e1c6964","625eeb4d5b63079208199a9b","3","","","","","","","","","","","","","","","true","false","[]","[]","[]","","","","","","","","","","","","",""
"instructions","html-button-response","4","105608","0.0-2.0-2.0","5a6cfad8ab58b500015f56ef","625e209c10a247530e1c6964","625eeb4d5b63079208199a9b","3","14550","
        <div class=""text-container"">
            <h1>Welcome to the study!</h1>
            
            <div class=""text-left"">
                <p>
                    In this study, we are interested in how people think about different Google Street View images. Google Street View takes pictures of streets used for Google Earth and Google Maps. You’ll see Google Street View images of different places and answer some questions about each one.
                </p>
            </div>
            
            <img src='
            https://maps.googleapis.com/maps/api/streetview?size=640x320
            &location=37.783631,-122.432766
            &heading=80
            &pitch=2
            &fov=100
            &radius=150
            &key=AIzaSyC2OxRDg6qlzZDj7j0UAD2XyE0qWokLvvs
            &source=outdoor'>
        
            <br>
        <br>
    ","0","","","","","","","","","","","","","","","","","","","","","","","","","","","","",""
"instructions","html-button-response","5","138874","0.0-2.0-3.0","5a6cfad8ab58b500015f56ef","625e209c10a247530e1c6964","625eeb4d5b63079208199a9b","3","32964","
        <style>
            img.small {
            max-width: 100px;
            }
            li {
            text-indent: 40px;
            }
        </style>

        <div class=""text-container text-left"">
            <p>For each picture, we’d like your impressions of the scene:</p>
            
            <hr>
                Are there <b>clear, distinct boundaries</b> between objects in the scene, or are the <b>boundaries ambiguous or unclear</b>?
                
                <li>clear, distinct boundaries: <img class=""small"" src=""assets/img/ambiguous-low.png""></li>
                <li>ambiguous or unclear boundaries: <img class=""small"" src=""assets/img/ambiguous-high.png""></li>
            <hr>
            <br>
                Are there <b>only a few different objects</b> in the scene, or is there <b>a large number</b>?
            <br><br>
            <hr>
                Are only <b>a few parts</b> of the scene <b>invisible or obscured</b>, or are <b>many parts invisible or obscured</b>?
                
                <li>a few parts invisible or obscured: <img class=""small"" src=""assets/img/invisible-low.png""></li>
                <li>many parts invisible or obscured: <img class=""small"" src=""assets/img/invisible-high.png""></li>
            <hr>
            <br>
                Does the scene look <b>organized</b> or <b>chaotic</b> to you?
            <br><br>
            <hr>
            
            <p>
                There are no right or wrong answers: we are interested in <b>your</b> impression. Note that some images might have individual buildings or faces blurred for privacy. Please ignore these when making your judgments.
            </p>
        </div>
        <br>
    ","0","","","","","","","","","","","","","","","","","","","","","","","","","","","","",""
"instructions","html-button-response","6","147174","0.0-2.0-4.0","5a6cfad8ab58b500015f56ef","625e209c10a247530e1c6964","625eeb4d5b63079208199a9b","3","8295","
        <div class=""text-container text-left"">
            <p>Please make sure you are doing this study in an area where you can focus and complete the survey in one sitting.</p>

            <p>Don’t spend too much time on any one picture, and, again go with your gut impression!</p>
            
            <p>The study should take about 30 minutes. We’ll let you know when you’re halfway through.</p>
        </div>
            
        <h3>Ready? Click next to get started!</h3>
        <br>
    ","0","","","","","","","","","","","","","","","","","","","","","","","","","","","","",""
"trial","survey","7","166221","0.0-2.0-5.0","5a6cfad8ab58b500015f56ef","625e209c10a247530e1c6964","625eeb4d5b63079208199a9b","3","18974","","{""P0_Q0"":null,""ambiguous"":4,""objects"":5,""invisible"":5,""chaos"":4}","","","","","","","","","","","","","","","","","[]","Nearby location of 豊島区立朝日小学校 ひいらぎ学級 (jp_tok-c_sch_a_2)","ChIJsX5PhoGNGGARkg3BIt6IYKg","35.7421166","139.7340459","JP","TOK","CTR","SCH","4-chōme-57-10 Nishigahara, Kita City, Tokyo 114-0024, Japan","jp_tok-c_sch_b_2","270","jp_tok-c_sch_b_2_270"
"trial","survey","8","184761","0.0-2.0-6.0","5a6cfad8ab58b500015f56ef","625e209c10a247530e1c6964","625eeb4d5b63079208199a9b","3","18513","","{""P0_Q0"":null,""ambiguous"":2,""objects"":3,""invisible"":2,""chaos"":2}","","","","","","","","","","","","","","","","","[]","Nearby location of 3rd Haketa Elementary School (jp_tok-p_sch_a_1)","ChIJj82HZcOPGGARdlxKpMVK0K8","35.7349985","139.787222","JP","TOK","PER","SCH","Japan, 〒116-0002 Tokyo, Arakawa City, Arakawa, 1-chōme−26−１ ＮＴＴ ビル 本館1階","jp_tok-p_sch_b_1","90","jp_tok-p_sch_b_1_90"
"trial","survey","9","201227","0.0-2.0-7.0","5a6cfad8ab58b500015f56ef","625e209c10a247530e1c6964","625eeb4d5b63079208199a9b","3","16440","","{""P0_Q0"":null,""ambiguous"":5,""objects"":4,""invisible"":4,""chaos"":3}","","","","","","","","","","","","","","","","","[]","Tokyo Marriott Hotel","MCTYOMCM","35.62207","139.73696","JP","TOK","PER","HTL","4-7-36 KITASHINAGAWA SHINAGAWA, TOKYO 140-0001","jp_tok-p_htl_a_high1","90","jp_tok-p_htl_a_high1_90"
"trial","survey","10","216941","0.0-2.0-8.0","5a6cfad8ab58b500015f56ef","625e209c10a247530e1c6964","625eeb4d5b63079208199a9b","3","15691","","{""P0_Q0"":null,""ambiguous"":5,""objects"":1,""invisible"":2,""chaos"":2}","","","","","","","","","","","","","","","","","[]","Nearby location of United States Postal Service (us_chl_pos_a_1)","ChIJt-RJ963OPIgRV95g54XMslo","42.3073218","-84.0212878","US","CHL","CHL","POS","1070 S Main St, Chelsea, MI 48118, USA","us_chl_pos_b_1","180","us_chl_pos_b_1_180"
"trial","survey","11","382228","0.0-2.0-9.0","5a6cfad8ab58b500015f56ef","625e209c10a247530e1c6964","625eeb4d5b63079208199a9b","3","165262","","{""P0_Q0"":null,""ambiguous"":2,""objects"":4,""invisible"":4,""chaos"":2}","","","","","","","","","","","","","","","","","[]","Nearby location of MyStays Asakusa (jp_tok-p_htl_a_low1)","ChIJo6zX0s6OGGAROOChcY8yK98","35.7053797","139.7984784","JP","TOK","PER","HTL","1-chōme-7-4 Higashikomagata, Sumida City, Tokyo 130-0005, Japan","jp_tok-p_htl_b_low1","0","jp_tok-p_htl_b_low1_0"
"trial","survey","12","405845","0.0-2.0-10.0","5a6cfad8ab58b500015f56ef","625e209c10a247530e1c6964","625eeb4d5b63079208199a9b","3","23593","","{""P0_Q0"":null,""ambiguous"":4,""objects"":3,""invisible"":3,""chaos"":3}","","","","","","","","","","","","","","","","","[]","Nearby location of United States Postal Service (us_nyc-c_pos_a_1)","ChIJb5p6MRP2wokR4nQvWgRky_4","40.8100051","-73.9519042","US","NYC","CTR","POS","2311 Frederick Douglass Blvd, New York, NY 10027, USA","us_nyc-c_pos_b_1","180","us_nyc-c_pos_b_1_180"
"trial","survey","13","446214","0.0-2.0-11.0","5a6cfad8ab58b500015f56ef","625e209c10a247530e1c6964","625eeb4d5b63079208199a9b","3","40349","","{""P0_Q0"":null,""ambiguous"":2,""objects"":2,""invisible"":2,""chaos"":2}","","","","","","","","","","","","","","","","","[]","Nearby location of Torahime Post Office (jp_tor_pos_a_1)","ChIJgxpx9J4oAmARIkc4T1H6KS0","35.420504","136.263204","JP","TOR","TOR","POS","171-3 Gomura, Nagahama, Shiga 529-0141, Japan","jp_tor_pos_b_1","180","jp_tor_pos_b_1_180"
"trial","survey","14","467736","0.0-2.0-12.0","5a6cfad8ab58b500015f56ef","625e209c10a247530e1c6964","625eeb4d5b63079208199a9b","3","21499","","{""P0_Q0"":null,""ambiguous"":1,""objects"":2,""invisible"":3,""chaos"":2}","","","","","","","","","","","","","","","","","[]","P.S. 153 Adam Clayton Powell","ChIJzzGA13z2wokRATSY11DeEH8","40.826491","-73.9475211","US","NYC","CTR","SCH","1750 Amsterdam Ave, New York, NY 10031, USA","us_nyc-c_sch_a_3","90","us_nyc-c_sch_a_3_90"
"trial","survey","15","484567","0.0-2.0-13.0","5a6cfad8ab58b500015f56ef","625e209c10a247530e1c6964","625eeb4d5b63079208199a9b","3","16807","","{""P0_Q0"":null,""ambiguous"":4,""objects"":2,""invisible"":2,""chaos"":3}","","","","","","","","","","","","","","","","","[]","PS 146 Anna M. Short School","ChIJtwKR6hz2wokRPs0Ro5kWXS0","40.7897123","-73.9393805","US","NYC","CTR","SCH","421 E 106th St #4896, New York, NY 10029, USA","us_nyc-c_sch_a_5","90","us_nyc-c_sch_a_5_90"
"trial","survey","16","501555","0.0-2.0-14.0","5a6cfad8ab58b500015f56ef","625e209c10a247530e1c6964","625eeb4d5b63079208199a9b","3","16966","","{""P0_Q0"":null,""ambiguous"":5,""objects"":3,""invisible"":3,""chaos"":5}","","","","","","","","","","","","","","","","","[]","Nearby location of Kanponoyado Hikone (jp_hik_htl_a_mid1)","ChIJ52LxtyYrAmARRzLfR851uZY","35.2879027","136.2510942","JP","HIK","HIK","HTL","1090 Matsubarachō, Hikone, Shiga 522-0002, Japan","jp_hik_htl_b_mid1","0","jp_hik_htl_b_mid1_0"
"trial","survey","17","523416","0.0-2.0-15.0","5a6cfad8ab58b500015f56ef","625e209c10a247530e1c6964","625eeb4d5b63079208199a9b","3","21840","","{""P0_Q0"":null,""ambiguous"":2,""objects"":4,""invisible"":4,""chaos"":3}","","","","","","","","","","","","","","","","","[]","Nearby location of MyStays Asakusa (jp_tok-p_htl_a_low1)","ChIJo6zX0s6OGGAROOChcY8yK98","35.7053797","139.7984784","JP","TOK","PER","HTL","1-chōme-7-4 Higashikomagata, Sumida City, Tokyo 130-0005, Japan","jp_tok-p_htl_b_low1","180","jp_tok-p_htl_b_low1_180"
"trial","survey","18","536108","0.0-2.0-16.0","5a6cfad8ab58b500015f56ef","625e209c10a247530e1c6964","625eeb4d5b63079208199a9b","3","12670","","{""P0_Q0"":null,""ambiguous"":3,""objects"":3,""invisible"":4,""chaos"":3}","","","","","","","","","","","","","","","","","[]","Nakano Shirasagi Post Office","ChIJxY70cpHtGGARm_OCTi5pxck","35.719125","139.6361439","JP","TOK","PER","POS","2-chōme-35-12 Shirasagi, Nakano City, Tokyo 165-0035, Japan","jp_tok-p_pos_a_3","0","jp_tok-p_pos_a_3_0"
"trial","survey","19","554955","0.0-2.0-17.0","5a6cfad8ab58b500015f56ef","625e209c10a247530e1c6964","625eeb4d5b63079208199a9b","3","18826","","{""P0_Q0"":null,""ambiguous"":1,""objects"":2,""invisible"":1,""chaos"":2}","","","","","","","","","","","","","","","","","[]","3rd Haketa Elementary School","ChIJ-R1gr2OOGGARBama0y6Aw5k","35.733569","139.78608","JP","TOK","PER","SCH","1-chōme-43-1 Arakawa, Arakawa City, Tokyo 116-0002, Japan","jp_tok-p_sch_a_1","270","jp_tok-p_sch_a_1_270"
"trial","survey","20","579313","0.0-2.0-18.0","5a6cfad8ab58b500015f56ef","625e209c10a247530e1c6964","625eeb4d5b63079208199a9b","3","24340","","{""P0_Q0"":null,""ambiguous"":3,""objects"":2,""invisible"":4,""chaos"":3}","","","","","","","","","","","","","","","","","[]","Nakano Shirasagi Post Office","ChIJxY70cpHtGGARm_OCTi5pxck","35.719125","139.6361439","JP","TOK","PER","POS","2-chōme-35-12 Shirasagi, Nakano City, Tokyo 165-0035, Japan","jp_tok-p_pos_a_3","90","jp_tok-p_pos_a_3_90"
"trial","survey","21","601292","0.0-2.0-19.0","5a6cfad8ab58b500015f56ef","625e209c10a247530e1c6964","625eeb4d5b63079208199a9b","3","21953","","{""P0_Q0"":null,""ambiguous"":4,""objects"":1,""invisible"":4,""chaos"":3}","","","","","","","","","","","","","","","","","[]","Nearby location of Mitchell Elementary School (us_arb_sch_a_4)","ChIJs-axekGvPIgRBvxYNOm48Hc","42.2361096","-83.6952309","US","ARB","ARB","SCH","3318 Williamsburg Rd, Ann Arbor, MI 48108, USA","us_arb_sch_b_4","0","us_arb_sch_b_4_0"
"trial","survey","22","620980","0.0-2.0-20.0","5a6cfad8ab58b500015f56ef","625e209c10a247530e1c6964","625eeb4d5b63079208199a9b","3","19666","","{""P0_Q0"":null,""ambiguous"":1,""objects"":3,""invisible"":5,""chaos"":1}","","","","","","","","","","","","","","","","","[]","Nearby location of Yonehara Shiritsu Yonehara Elementary School (jp_hik_sch_a_1)","ChIJHY8tRnsrAmARDrvbTNjR_tg","35.3153923","136.2799377","JP","HIK","HIK","SCH","Japan, 〒521-0011 Shiga, Maibara, Nakatara, ６０３−１ Sun Village 米原","jp_hik_sch_b_1","90","jp_hik_sch_b_1_90"
"trial","survey","23","637359","0.0-2.0-21.0","5a6cfad8ab58b500015f56ef","625e209c10a247530e1c6964","625eeb4d5b63079208199a9b","3","16359","","{""P0_Q0"":null,""ambiguous"":5,""objects"":2,""invisible"":5,""chaos"":5}","","","","","","","","","","","","","","","","","[]","須賀谷温泉","ChIJ_4AJx3YmAmARdbO9N7D3Ofo","35.454895","136.281751","JP","TOR","TOR","HTL","36 Sugatanichō, Nagahama, Shiga 526-0277, Japan","jp_tor_htl_a_high1","270","jp_tor_htl_a_high1_270"
"trial","survey","24","713416","0.0-2.0-22.0","5a6cfad8ab58b500015f56ef","625e209c10a247530e1c6964","625eeb4d5b63079208199a9b","3","76035","","{""P0_Q0"":null,""ambiguous"":3,""objects"":2,""invisible"":4,""chaos"":3}","","","","","","","","","","","","","","","","","[]","Nearby location of Sakata Elementary School (jp_hik_sch_a_4)","ChIJBzK5RHYsAmARdmisGXiOTX0","35.3390583","136.2876793","JP","HIK","HIK","SCH","528 Ukano, Maibara, Shiga 521-0062, Japan","jp_hik_sch_b_4","90","jp_hik_sch_b_4_90"
"trial","survey","25","725658","0.0-2.0-23.0","5a6cfad8ab58b500015f56ef","625e209c10a247530e1c6964","625eeb4d5b63079208199a9b","3","12217","","{""P0_Q0"":null,""ambiguous"":1,""objects"":1,""invisible"":4,""chaos"":1}","","","","","","","","","","","","","","","","","[]","United States Postal Service","ChIJ00vgwVlDwokRCNivb7JW25o","40.6153779","-73.9292541","US","NYC","PER","POS","2222 Flatbush Ave, Brooklyn, NY 11234, USA","us_nyc-p_pos_a_3","270","us_nyc-p_pos_a_3_270"
"trial","survey","26","741904","0.0-2.0-24.0","5a6cfad8ab58b500015f56ef","625e209c10a247530e1c6964","625eeb4d5b63079208199a9b","3","16224","","{""P0_Q0"":null,""ambiguous"":2,""objects"":2,""invisible"":1,""chaos"":2}","","","","","","","","","","","","","","","","","[]","Kotō 3rd Elementary School","ChIJyWBTvO3XA2ARubFCKa9mR4A","35.130888","136.225113","JP","HIK","HIK","SCH","340 Kotakarichō, Higashiomi, Shiga 527-0125, Japan","jp_hik_sch_a_3","0","jp_hik_sch_a_3_0"
"trial","survey","27","757257","0.0-2.0-25.0","5a6cfad8ab58b500015f56ef","625e209c10a247530e1c6964","625eeb4d5b63079208199a9b","3","15332","","{""P0_Q0"":null,""ambiguous"":3,""objects"":3,""invisible"":4,""chaos"":3}","","","","","","","","","","","","","","","","","[]","Sandy Hook CenTer","ChIJdzryqpZZwokRskdUpqxDvaI","40.7330008","-74.0005218","US","NYC","CTR","SCH","136 Waverly Pl, New York, NY 10014, USA","us_nyc-c_sch_a_4","90","us_nyc-c_sch_a_4_90"
"trial","survey","28","771855","0.0-2.0-26.0","5a6cfad8ab58b500015f56ef","625e209c10a247530e1c6964","625eeb4d5b63079208199a9b","3","14576","","{""P0_Q0"":null,""ambiguous"":1,""objects"":2,""invisible"":1,""chaos"":1}","","","","","","","","","","","","","","","","","[]","United States Postal Service","ChIJ2S39Rs6xPIgRFumqYMpJrTE","42.2709374","-83.7748696","US","ARB","ARB","POS","2075 W Stadium Blvd, Ann Arbor, MI 48103, USA","us_arb_pos_a_2","0","us_arb_pos_a_2_0"
"trial","survey","29","786620","0.0-2.0-27.0","5a6cfad8ab58b500015f56ef","625e209c10a247530e1c6964","625eeb4d5b63079208199a9b","3","14743","","{""P0_Q0"":null,""ambiguous"":3,""objects"":2,""invisible"":2,""chaos"":2}","","","","","","","","","","","","","","","","","[]","Marunouchi Center Bldg. Post Office","ChIJEXvU5PiLGGARr5EAERW7XhI","35.6836406","139.7655925","JP","TOK","CTR","POS","1-chōme-6-1 Marunouchi, Chiyoda City, Tokyo 100-0005, Japan","jp_tok-c_pos_a_8","270","jp_tok-c_pos_a_8_270"
"trial","survey","30","803608","0.0-2.0-28.0","5a6cfad8ab58b500015f56ef","625e209c10a247530e1c6964","625eeb4d5b63079208199a9b","3","16968","","{""P0_Q0"":null,""ambiguous"":2,""objects"":4,""invisible"":2,""chaos"":2}","","","","","","","","","","","","","","","","","[]","Nearby location of United States Postal Service (us_nyc-c_pos_a_2)","ChIJtTVWPTz2wokR67Bcx4reZLs","40.8061808","-73.963843","US","NYC","CTR","POS","540 W 114th St, New York, NY 10025, USA","us_nyc-c_pos_b_2","270","us_nyc-c_pos_b_2_270"
"trial","survey","31","819072","0.0-2.0-29.0","5a6cfad8ab58b500015f56ef","625e209c10a247530e1c6964","625eeb4d5b63079208199a9b","3","15443","","{""P0_Q0"":null,""ambiguous"":2,""objects"":1,""invisible"":2,""chaos"":3}","","","","","","","","","","","","","","","","","[]","Bunkyo Otsuka 3 Post Office","ChIJ2xa06qWNGGARyOBmGzqDPvY","35.7218144","139.7382888","JP","TOK","CTR","POS","3-chōme-39-7 Ōtsuka, Bunkyo City, Tokyo 112-0012, Japan","jp_tok-c_pos_a_7","0","jp_tok-c_pos_a_7_0"
"trial","survey","32","836294","0.0-2.0-30.0","5a6cfad8ab58b500015f56ef","625e209c10a247530e1c6964","625eeb4d5b63079208199a9b","3","17202","","{""P0_Q0"":null,""ambiguous"":3,""objects"":3,""invisible"":3,""chaos"":2}","","","","","","","","","","","","","","","","","[]","ORCHARD STREET HOTEL","PWNYC109","40.72117","-73.98894","US","NYC","CTR","HTL","163 ORCHARD STREET, NEW YORK, NY 10002","us_nyc-c_htl_a_low1","180","us_nyc-c_htl_a_low1_180"
"trial","survey","33","852142","0.0-2.0-31.0","5a6cfad8ab58b500015f56ef","625e209c10a247530e1c6964","625eeb4d5b63079208199a9b","3","15826","","{""P0_Q0"":null,""ambiguous"":1,""objects"":1,""invisible"":3,""chaos"":2}","","","","","","","","","","","","","","","","","[]","Nearby location of 台東小学校跡 (jp_tok-c_sch_a_1)","ChIJRW4MQI-OGGARtWvlCd2h0KY","35.7243493","139.7843592","JP","TOK","CTR","SCH","Japan, 〒110-0003 Tokyo, Taito City, Negishi, 4-chōme−1−３ 安楽寺","jp_tok-c_sch_b_1","0","jp_tok-c_sch_b_1_0"
"trial","survey","34","874817","0.0-2.0-32.0","5a6cfad8ab58b500015f56ef","625e209c10a247530e1c6964","625eeb4d5b63079208199a9b","3","22652","","{""P0_Q0"":null,""ambiguous"":3,""objects"":3,""invisible"":3,""chaos"":4}","","","","","","","","","","","","","","","","","[]","Hilton Garden Inn New York/Manhattan-Midtown East","GILGA964","40.75658","-73.96944","US","NYC","CTR","HTL","206 EAST 52ND STREET, NEW YORK, NY 10022","us_nyc-c_htl_a_low2","90","us_nyc-c_htl_a_low2_90"
"trial","survey","35","887631","0.0-2.0-33.0","5a6cfad8ab58b500015f56ef","625e209c10a247530e1c6964","625eeb4d5b63079208199a9b","3","12794","","{""P0_Q0"":null,""ambiguous"":1,""objects"":1,""invisible"":2,""chaos"":2}","","","","","","","","","","","","","","","","","[]","Nearby location of Quality Inn and Suites Ann Arbor Hwy 23 (us_arb_htl_a_mid2)","ChIJUf9k3i2vPIgRY6-MziLWsGc","42.25094","-83.682429","US","ARB","ARB","HTL","2525 Gross Rd, Ann Arbor, MI 48108, USA","us_arb_htl_b_mid2","270","us_arb_htl_b_mid2_270"
"trial","survey","36","897306","0.0-2.0-34.0","5a6cfad8ab58b500015f56ef","625e209c10a247530e1c6964","625eeb4d5b63079208199a9b","3","9655","","{""P0_Q0"":null,""ambiguous"":1,""objects"":2,""invisible"":1,""chaos"":1}","","","","","","","","","","","","","","","","","[]","Fairfield Inn and Suites by Marriott New York Manhattan Times Square","FNNYCFIF","40.75652","-73.99247","US","NYC","CTR","HTL","330 WEST 40TH STREET, NEW YORK, NY 10018","us_nyc-c_htl_a_mid1","180","us_nyc-c_htl_a_mid1_180"
"trial","survey","37","915587","0.0-2.0-35.0","5a6cfad8ab58b500015f56ef","625e209c10a247530e1c6964","625eeb4d5b63079208199a9b","3","18261","","{""P0_Q0"":null,""ambiguous"":2,""objects"":3,""invisible"":2,""chaos"":2}","","","","","","","","","","","","","","","","","[]","Nearby location of Jingūmae 6 Post Office (jp_tok-c_pos_a_2)","ChIJo2FXfqaMGGARaHWKnjoqihY","35.665387","139.7037685","JP","TOK","CTR","POS","6-chōme-16-6 Jingūmae, Shibuya City, Tokyo 150-0001, Japan","jp_tok-c_pos_b_2","180","jp_tok-c_pos_b_2_180"
"trial","survey","38","928919","0.0-2.0-36.0","5a6cfad8ab58b500015f56ef","625e209c10a247530e1c6964","625eeb4d5b63079208199a9b","3","13310","","{""P0_Q0"":null,""ambiguous"":1,""objects"":1,""invisible"":2,""chaos"":1}","","","","","","","","","","","","","","","","","[]","Hikoneatohoteru","ChIJcSdJDVfUA2ARZ1X1w0kURVw","35.2392938","136.255227","JP","HIK","HIK","HTL","1707-1 Takamiyachō, Hikone, Shiga 522-0201, Japan","jp_hik_htl_a_low1","270","jp_hik_htl_a_low1_270"
"trial","survey","39","946940","0.0-2.0-37.0","5a6cfad8ab58b500015f56ef","625e209c10a247530e1c6964","625eeb4d5b63079208199a9b","3","18001","","{""P0_Q0"":null,""ambiguous"":2,""objects"":4,""invisible"":4,""chaos"":3}","","","","","","","","","","","","","","","","","[]","Nearby location of The Baltic House (us_nyc-p_htl_a_mid1)","ChIJz1earlRawokRerP6Itd2JDg","40.6806771","-73.9836973","US","NYC","PER","HTL","175 3rd Ave, Brooklyn, NY 11217, USA","us_nyc-p_htl_b_mid1","0","us_nyc-p_htl_b_mid1_0"
"trial","survey","40","1002946","0.0-2.0-38.0","5a6cfad8ab58b500015f56ef","625e209c10a247530e1c6964","625eeb4d5b63079208199a9b","3","55984","","{""P0_Q0"":null,""ambiguous"":4,""objects"":4,""invisible"":5,""chaos"":3}","","","","","","","","","","","","","","","","","[]","United States Postal Service","ChIJb5pfwxb2wokR4-EvJ1w0znA","40.8036447","-73.9541827","US","NYC","CTR","POS","232 W 116th St, New York, NY 10026, USA","us_nyc-c_pos_a_7","90","us_nyc-c_pos_a_7_90"
"trial","survey","41","1014566","0.0-2.0-39.0","5a6cfad8ab58b500015f56ef","625e209c10a247530e1c6964","625eeb4d5b63079208199a9b","3","11598","","{""P0_Q0"":null,""ambiguous"":2,""objects"":3,""invisible"":3,""chaos"":2}","","","","","","","","","","","","","","","","","[]","Sasazuka Elementary School","ChIJ93VkemvzGGARQtwBVOaMyuk","35.6759768","139.6693391","JP","TOK","CTR","SCH","2-chōme-8-1 Sasazuka, Shibuya City, Tokyo 151-0073, Japan","jp_tok-c_sch_a_6","0","jp_tok-c_sch_a_6_0"
"attention-check","survey","42","1018269","0.0-2.0-40.0","5a6cfad8ab58b500015f56ef","625e209c10a247530e1c6964","625eeb4d5b63079208199a9b","3","3683","","{""P0_Q0"":null,""ambiguous"":null,""objects"":null,""invisible"":null,""chaos"":null}","","","","","","","","","","","","","","","","","[]","","","","","","","","","","","",""
"half-way","html-button-response","43","1023719","0.0-2.0-41.0","5a6cfad8ab58b500015f56ef","625e209c10a247530e1c6964","625eeb4d5b63079208199a9b","3","5443","
            <h3>You are now half way through the study.</h3>
            <p>Please take a quick, 15-second break before you continue.</p>
            <img src='assets/img/countdown-15.gif'>
            <p>The study will automatically advance forward after the countdown is complete. However, you may click ""Next"" to advance forward now if you wish.</p>
        ","0","","","","","","","","","","","","","","","","","","","","","","","","","","","","",""
"trial","survey","44","1037167","0.0-2.0-42.0","5a6cfad8ab58b500015f56ef","625e209c10a247530e1c6964","625eeb4d5b63079208199a9b","3","13431","","{""P0_Q0"":null,""ambiguous"":5,""objects"":3,""invisible"":4,""chaos"":3}","","","","","","","","","","","","","","","","","[]","Nearby location of Bell Tower Hotel (us_arb_htl_a_high2)","ChIJuS95eUCuPIgRE9IqLokaozs","42.280115","-83.7411408","US","ARB","ARB","HTL","200 S State St, Ann Arbor, MI 48104, USA","us_arb_htl_b_high2","0","us_arb_htl_b_high2_0"
"trial","survey","45","1053910","0.0-2.0-43.0","5a6cfad8ab58b500015f56ef","625e209c10a247530e1c6964","625eeb4d5b63079208199a9b","3","16723","","{""P0_Q0"":null,""ambiguous"":2,""objects"":5,""invisible"":2,""chaos"":5}","","","","","","","","","","","","","","","","","[]","United States Postal Service","ChIJ7bddbC9ZwokRPh32cXCjIis","40.7414054","-74.0067214","US","NYC","CTR","POS","426A W 14th St, New York, NY 10014, USA","us_nyc-c_pos_a_8","270","us_nyc-c_pos_a_8_270"
"trial","survey","46","1069664","0.0-2.0-44.0","5a6cfad8ab58b500015f56ef","625e209c10a247530e1c6964","625eeb4d5b63079208199a9b","3","15733","","{""P0_Q0"":null,""ambiguous"":4,""objects"":3,""invisible"":2,""chaos"":4}","","","","","","","","","","","","","","","","","[]","Baymont by Wyndham Chelsea","ChIJ3WjGMLjOPIgRTSh5bhMfx-Q","42.2995297","-84.0281015","US","CHL","CHL","HTL","1540 Commerce Park Dr, Chelsea, MI 48118, USA","us_chl_htl_a_mid1","180","us_chl_htl_a_mid1_180"
"trial","survey","47","1084181","0.0-2.0-45.0","5a6cfad8ab58b500015f56ef","625e209c10a247530e1c6964","625eeb4d5b63079208199a9b","3","14497","","{""P0_Q0"":null,""ambiguous"":4,""objects"":3,""invisible"":3,""chaos"":4}","","","","","","","","","","","","","","","","","[]","Setagaya Okamoto Post Office","ChIJU6mt5gf0GGARS1eqIkjSKT4","35.6261891","139.6194159","JP","TOK","PER","POS","1-chōme-30-7 Okamoto, Setagaya City, Tokyo 157-0076, Japan","jp_tok-p_pos_a_1","0","jp_tok-p_pos_a_1_0"
"trial","survey","48","1096045","0.0-2.0-46.0","5a6cfad8ab58b500015f56ef","625e209c10a247530e1c6964","625eeb4d5b63079208199a9b","3","11845","","{""P0_Q0"":null,""ambiguous"":4,""objects"":3,""invisible"":3,""chaos"":4}","","","","","","","","","","","","","","","","","[]","Graduate Ann Arbor","GPARB348","42.28143","-83.74164","US","ARB","ARB","HTL","615 E HURON ST , ANN ARBOR, MI 48104","us_arb_htl_a_high1","180","us_arb_htl_a_high1_180"
"trial","survey","49","1109318","0.0-2.0-47.0","5a6cfad8ab58b500015f56ef","625e209c10a247530e1c6964","625eeb4d5b63079208199a9b","3","13253","","{""P0_Q0"":null,""ambiguous"":2,""objects"":2,""invisible"":2,""chaos"":2}","","","","","","","","","","","","","","","","","[]","Bell Tower Hotel","SCARB398","42.27929","-83.73974","US","ARB","ARB","HTL","300 S THAYER ST, ANN ARBOR, MI 48104","us_arb_htl_a_high2","90","us_arb_htl_a_high2_90"
"trial","survey","50","1121506","0.0-2.0-48.0","5a6cfad8ab58b500015f56ef","625e209c10a247530e1c6964","625eeb4d5b63079208199a9b","3","12168","","{""P0_Q0"":null,""ambiguous"":3,""objects"":3,""invisible"":3,""chaos"":2}","","","","","","","","","","","","","","","","","[]","Mercer Hotel","WVNYCMER","40.72603","-73.99856","US","NYC","CTR","HTL","147 MERCER STREET , NEW YORK, NY 10012","us_nyc-c_htl_a_ultra2","90","us_nyc-c_htl_a_ultra2_90"
"trial","survey","51","1135037","0.0-2.0-49.0","5a6cfad8ab58b500015f56ef","625e209c10a247530e1c6964","625eeb4d5b63079208199a9b","3","13512","","{""P0_Q0"":null,""ambiguous"":1,""objects"":3,""invisible"":2,""chaos"":1}","","","","","","","","","","","","","","","","","[]","Nearby location of Mitsui Garden Kyobashi Tokyo (jp_tok-c_htl_a_low2)","ChIJp2pEW_2LGGARnNNe1pDMCrc","35.6801013","139.7722917","JP","TOK","CTR","HTL","3 Chome-7 Nihonbashi, Chuo City, Tokyo 103-0027, Japan","jp_tok-c_htl_b_low2","180","jp_tok-c_htl_b_low2_180"
"trial","survey","52","1145726","0.0-2.0-50.0","5a6cfad8ab58b500015f56ef","625e209c10a247530e1c6964","625eeb4d5b63079208199a9b","3","10669","","{""P0_Q0"":null,""ambiguous"":1,""objects"":1,""invisible"":1,""chaos"":1}","","","","","","","","","","","","","","","","","[]","Nearby location of United States Postal Service (us_nyc-c_pos_a_5)","ChIJTw7oFwP0wokR0VL0nLNaknc","40.857723","-73.93222","US","NYC","CTR","POS","Broadway/W 192 St, New York, NY 10040, USA","us_nyc-c_pos_b_5","270","us_nyc-c_pos_b_5_270"
"trial","survey","53","1156674","0.0-2.0-51.0","5a6cfad8ab58b500015f56ef","625e209c10a247530e1c6964","625eeb4d5b63079208199a9b","3","10928","","{""P0_Q0"":null,""ambiguous"":2,""objects"":1,""invisible"":1,""chaos"":1}","","","","","","","","","","","","","","","","","[]","The Westin Tokyo","WITYOTOK","35.64174","139.71551","JP","TOK","PER","HTL","1 4 1 MITA MEGURO KU, TOKYO 1538580","jp_tok-p_htl_a_high2","180","jp_tok-p_htl_a_high2_180"
"trial","survey","54","1171243","0.0-2.0-52.0","5a6cfad8ab58b500015f56ef","625e209c10a247530e1c6964","625eeb4d5b63079208199a9b","3","14548","","{""P0_Q0"":null,""ambiguous"":3,""objects"":3,""invisible"":4,""chaos"":4}","","","","","","","","","","","","","","","","","[]","Jittered SV for The Tokyo Station Hotel (jp_tok-c_htl_a_high2)","ChIJC3Cf2PuLGGAROO00ukl8JwA","35.6812362","139.7671248","JP","TOK","CTR","HTL","Tokyo Station, 1-chōme-9 Marunouchi, Chiyoda City, Tokyo 100-0005, Japan","jp_tok-c_htl_a_high2","180","jp_tok-c_htl_a_high2_180"
"trial","survey","55","1182450","0.0-2.0-53.0","5a6cfad8ab58b500015f56ef","625e209c10a247530e1c6964","625eeb4d5b63079208199a9b","3","11188","","{""P0_Q0"":null,""ambiguous"":4,""objects"":5,""invisible"":4,""chaos"":4}","","","","","","","","","","","","","","","","","[]","Nearby location of Mandarin Oriental New York (us_nyc-c_htl_a_ultra1)","ChIJDTV9gfVYwokR4yg_rfSKw3M","40.7700712","-73.9843251","US","NYC","CTR","HTL","77 Columbus Ave, New York, NY 10023, USA","us_nyc-c_htl_b_ultra1","0","us_nyc-c_htl_b_ultra1_0"
"trial","survey","56","1196380","0.0-2.0-54.0","5a6cfad8ab58b500015f56ef","625e209c10a247530e1c6964","625eeb4d5b63079208199a9b","3","13909","","{""P0_Q0"":null,""ambiguous"":4,""objects"":3,""invisible"":4,""chaos"":2}","","","","","","","","","","","","","","","","","[]","Nearby location of South Meadows Elementary School (us_chl_sch_a_1)","ChIJFQ7Lva7OPIgR_c0d98fxzFI","42.3109393","-84.0229592","US","CHL","CHL","SCH","511 Maywood St, Chelsea, MI 48118, USA","us_chl_sch_b_1","0","us_chl_sch_b_1_0"
"trial","survey","57","1211732","0.0-2.0-55.0","5a6cfad8ab58b500015f56ef","625e209c10a247530e1c6964","625eeb4d5b63079208199a9b","3","15331","","{""P0_Q0"":null,""ambiguous"":1,""objects"":3,""invisible"":2,""chaos"":2}","","","","","","","","","","","","","","","","","[]","Fairfield Inn and Suites by Marriott New York Manhattan Times Square","FNNYCFIF","40.75652","-73.99247","US","NYC","CTR","HTL","330 WEST 40TH STREET, NEW YORK, NY 10018","us_nyc-c_htl_a_mid1","270","us_nyc-c_htl_a_mid1_270"
"trial","survey","58","1225422","0.0-2.0-56.0","5a6cfad8ab58b500015f56ef","625e209c10a247530e1c6964","625eeb4d5b63079208199a9b","3","13665","","{""P0_Q0"":null,""ambiguous"":1,""objects"":4,""invisible"":5,""chaos"":5}","","","","","","","","","","","","","","","","","[]","Best Western Plus Arena Hotel","BWJFK142","40.67815","-73.94879","US","NYC","PER","HTL","1324 ATLANTIC AVENUE, BROOKLYN, NY 11216","us_nyc-p_htl_a_low1","0","us_nyc-p_htl_a_low1_0"
"trial","survey","59","1240839","0.0-2.0-57.0","5a6cfad8ab58b500015f56ef","625e209c10a247530e1c6964","625eeb4d5b63079208199a9b","3","15395","","{""P0_Q0"":null,""ambiguous"":3,""objects"":4,""invisible"":4,""chaos"":3}","","","","","","","","","","","","","","","","","[]","United States Postal Service","ChIJ2S39Rs6xPIgRFumqYMpJrTE","42.2709374","-83.7748696","US","ARB","ARB","POS","2075 W Stadium Blvd, Ann Arbor, MI 48103, USA","us_arb_pos_a_2","90","us_arb_pos_a_2_90"
"trial","survey","60","1255162","0.0-2.0-58.0","5a6cfad8ab58b500015f56ef","625e209c10a247530e1c6964","625eeb4d5b63079208199a9b","3","14304","","{""P0_Q0"":null,""ambiguous"":3,""objects"":3,""invisible"":4,""chaos"":3}","","","","","","","","","","","","","","","","","[]","Nearby location of United States Postal Service (us_nyc-p_pos_a_6)","ChIJ3R3ukfxEwokRG8NgRpaxZSY","40.6042186","-73.9781935","US","NYC","PER","POS","1776 W 5th St, Brooklyn, NY 11223, USA","us_nyc-p_pos_b_6","0","us_nyc-p_pos_b_6_0"
"trial","survey","61","1269376","0.0-2.0-59.0","5a6cfad8ab58b500015f56ef","625e209c10a247530e1c6964","625eeb4d5b63079208199a9b","3","14194","","{""P0_Q0"":null,""ambiguous"":2,""objects"":1,""invisible"":2,""chaos"":2}","","","","","","","","","","","","","","","","","[]","びわ湖畔リゾート 白浜荘","ChIJIeJgVfibAWAR-Jd7lsdIM-M","35.3054063","136.0367666","JP","HIK","HIK","HTL","2300-1 Adogawachō Shimoogawa, Takashima, Shiga 520-1223, Japan","jp_hik_htl_a_mid2","0","jp_hik_htl_a_mid2_0"
"trial","survey","62","1280512","0.0-2.0-60.0","5a6cfad8ab58b500015f56ef","625e209c10a247530e1c6964","625eeb4d5b63079208199a9b","3","11114","","{""P0_Q0"":null,""ambiguous"":1,""objects"":2,""invisible"":1,""chaos"":1}","","","","","","","","","","","","","","","","","[]","Mercer Hotel","WVNYCMER","40.72603","-73.99856","US","NYC","CTR","HTL","147 MERCER STREET , NEW YORK, NY 10012","us_nyc-c_htl_a_ultra2","270","us_nyc-c_htl_a_ultra2_270"
"trial","survey","63","1298276","0.0-2.0-61.0","5a6cfad8ab58b500015f56ef","625e209c10a247530e1c6964","625eeb4d5b63079208199a9b","3","17742","","{""P0_Q0"":null,""ambiguous"":4,""objects"":3,""invisible"":2,""chaos"":3}","","","","","","","","","","","","","","","","","[]","Kirihara Higashi Elementary School","ChIJpavbTi56AWARRkSsYgXqutM","35.122484","136.087719","JP","HIK","HIK","SCH","175 Tsuchidachō, Omihachiman, Shiga 523-0082, Japan","jp_hik_sch_a_2","270","jp_hik_sch_a_2_270"
"trial","survey","64","1312538","0.0-2.0-62.0","5a6cfad8ab58b500015f56ef","625e209c10a247530e1c6964","625eeb4d5b63079208199a9b","3","14241","","{""P0_Q0"":null,""ambiguous"":4,""objects"":3,""invisible"":3,""chaos"":2}","","","","","","","","","","","","","","","","","[]","Nearby location of P.S. 020 John Bowne (us_nyc-p_sch_a_5)","ChIJ-7aNoRZgwokRFC2hF6Idg2E","40.7572054","-73.8229217","US","NYC","PER","SCH","14231 Franklin Ave, Queens, NY 11355, USA","us_nyc-p_sch_b_5","180","us_nyc-p_sch_b_5_180"
"trial","survey","65","1325205","0.0-2.0-63.0","5a6cfad8ab58b500015f56ef","625e209c10a247530e1c6964","625eeb4d5b63079208199a9b","3","12648","","{""P0_Q0"":null,""ambiguous"":3,""objects"":5,""invisible"":4,""chaos"":4}","","","","","","","","","","","","","","","","","[]","Nearby location of Mandarin Oriental New York (us_nyc-c_htl_a_ultra1)","ChIJDTV9gfVYwokR4yg_rfSKw3M","40.7700712","-73.9843251","US","NYC","CTR","HTL","77 Columbus Ave, New York, NY 10023, USA","us_nyc-c_htl_b_ultra1","180","us_nyc-c_htl_b_ultra1_180"
"trial","survey","66","1338258","0.0-2.0-64.0","5a6cfad8ab58b500015f56ef","625e209c10a247530e1c6964","625eeb4d5b63079208199a9b","3","13031","","{""P0_Q0"":null,""ambiguous"":2,""objects"":3,""invisible"":2,""chaos"":2}","","","","","","","","","","","","","","","","","[]","Kirihara Higashi Elementary School","ChIJpavbTi56AWARRkSsYgXqutM","35.122484","136.087719","JP","HIK","HIK","SCH","175 Tsuchidachō, Omihachiman, Shiga 523-0082, Japan","jp_hik_sch_a_2","180","jp_hik_sch_a_2_180"
"trial","survey","67","1350422","0.0-2.0-65.0","5a6cfad8ab58b500015f56ef","625e209c10a247530e1c6964","625eeb4d5b63079208199a9b","3","12142","","{""P0_Q0"":null,""ambiguous"":1,""objects"":4,""invisible"":3,""chaos"":4}","","","","","","","","","","","","","","","","","[]","Jittered SV for Nearby location of The Tokyo Station Hotel (jp_tok-c_htl_a_high2) (jp_tok-c_htl_b_high2)","ChIJYczFnPyLGGARpA9nubZ6QGc","35.679239","139.76798","JP","TOK","CTR","HTL","Tokyo Sta. Yaesuguchi(Yaesu Exit), 2-chōme-3 Yaesu, Chuo City, Tokyo 104-0028, Japan","jp_tok-c_htl_b_high2","0","jp_tok-c_htl_b_high2_0"
"trial","survey","68","1361682","0.0-2.0-66.0","5a6cfad8ab58b500015f56ef","625e209c10a247530e1c6964","625eeb4d5b63079208199a9b","3","11240","","{""P0_Q0"":null,""ambiguous"":1,""objects"":5,""invisible"":4,""chaos"":4}","","","","","","","","","","","","","","","","","[]","Jittered SV for Nearby location of Hotel Villa Fontaine Nihombashi-Hakozaki (jp_tok-c_htl_a_low1) (jp_tok-c_htl_b_low1)","ChIJcZnDxKeJGGARHOldLPKzIl8","35.6825421","139.7856265","JP","TOK","CTR","HTL","Japan, 〒103-0014 Tokyo, Chuo City, Nihonbashikakigarachō, 2-chōme−2−２ 関口ビル","jp_tok-c_htl_b_low1","0","jp_tok-c_htl_b_low1_0"
"trial","survey","69","1374240","0.0-2.0-67.0","5a6cfad8ab58b500015f56ef","625e209c10a247530e1c6964","625eeb4d5b63079208199a9b","3","12537","","{""P0_Q0"":null,""ambiguous"":2,""objects"":3,""invisible"":3,""chaos"":3}","","","","","","","","","","","","","","","","","[]","Tyler school","ChIJt-5KfXv1wokRq4WnokUwQ44","40.8513114","-73.8564072","US","NYC","PER","SCH","1916 Hone Ave, Bronx, NY 10461, USA","us_nyc-p_sch_a_3","270","us_nyc-p_sch_a_3_270"
"trial","survey","70","1387954","0.0-2.0-68.0","5a6cfad8ab58b500015f56ef","625e209c10a247530e1c6964","625eeb4d5b63079208199a9b","3","13694","","{""P0_Q0"":null,""ambiguous"":4,""objects"":2,""invisible"":3,""chaos"":2}","","","","","","","","","","","","","","","","","[]","Nearby location of Kotō 3rd Elementary School (jp_hik_sch_a_3)","ChIJLZ0mLuzXA2ARkBmZe7KxZ-s","35.1317714","136.2240495","JP","HIK","HIK","SCH","2191-2 Kotakarichō, Higashiomi, Shiga 527-0125, Japan","jp_hik_sch_b_3","180","jp_hik_sch_b_3_180"
"trial","survey","71","1397746","0.0-2.0-69.0","5a6cfad8ab58b500015f56ef","625e209c10a247530e1c6964","625eeb4d5b63079208199a9b","3","9771","","{""P0_Q0"":null,""ambiguous"":1,""objects"":2,""invisible"":1,""chaos"":1}","","","","","","","","","","","","","","","","","[]","USPS Bayside Carrier Annex","ChIJKfnG5OFhwokRDpTOYU_3G4g","40.7633707","-73.7662444","US","NYC","PER","POS","41-29 216th St, Bayside, NY 11361, USA","us_nyc-p_pos_a_1","90","us_nyc-p_pos_a_1_90"
"trial","survey","72","1415744","0.0-2.0-70.0","5a6cfad8ab58b500015f56ef","625e209c10a247530e1c6964","625eeb4d5b63079208199a9b","3","17978","","{""P0_Q0"":null,""ambiguous"":1,""objects"":4,""invisible"":1,""chaos"":2}","","","","","","","","","","","","","","","","","[]","Nearby location of Yotsuya Station Post Office (jp_tok-c_pos_a_3)","ChIJ5QGWpIuMGGARM3syjI6N6t8","35.6864179","139.7285004","JP","TOK","CTR","POS","1-chōme-8-3 Yotsuya, Shinjuku City, Tokyo 160-0004, Japan","jp_tok-c_pos_b_3","270","jp_tok-c_pos_b_3_270"
"trial","survey","73","1437318","0.0-2.0-71.0","5a6cfad8ab58b500015f56ef","625e209c10a247530e1c6964","625eeb4d5b63079208199a9b","3","21552","","{""P0_Q0"":null,""ambiguous"":1,""objects"":3,""invisible"":3,""chaos"":2}","","","","","","","","","","","","","","","","","[]","Yonehara Shiritsu Yonehara Elementary School","ChIJaQYSoWQrAmARNFmF-erxUY4","35.31424","136.280753","JP","HIK","HIK","SCH","307 Irie, Maibara, Shiga 521-0003, Japan","jp_hik_sch_a_1","270","jp_hik_sch_a_1_270"
"trial","survey","74","1450933","0.0-2.0-72.0","5a6cfad8ab58b500015f56ef","625e209c10a247530e1c6964","625eeb4d5b63079208199a9b","3","13592","","{""P0_Q0"":null,""ambiguous"":3,""objects"":2,""invisible"":2,""chaos"":2}","","","","","","","","","","","","","","","","","[]","Ann Arbor Hills Child Development Center","ChIJe87tMeKuPIgRVFWuWyeOdBY","42.2629596","-83.7044284","US","ARB","ARB","SCH","2775 Bedford Rd, Ann Arbor, MI 48104, USA","us_arb_sch_a_1","270","us_arb_sch_a_1_270"
"trial","survey","75","1464416","0.0-2.0-73.0","5a6cfad8ab58b500015f56ef","625e209c10a247530e1c6964","625eeb4d5b63079208199a9b","3","13459","","{""P0_Q0"":null,""ambiguous"":4,""objects"":4,""invisible"":4,""chaos"":3}","","","","","","","","","","","","","","","","","[]","Nihonbashi Elementary School","ChIJdXahT1CJGGARlBMGrWteCyU","35.684732","139.781385","JP","TOK","CTR","SCH","1-chōme-1-17 Nihonbashiningyōchō, Chuo City, Tokyo 103-0013, Japan","jp_tok-c_sch_a_7","180","jp_tok-c_sch_a_7_180"
"trial","survey","76","1477887","0.0-2.0-74.0","5a6cfad8ab58b500015f56ef","625e209c10a247530e1c6964","625eeb4d5b63079208199a9b","3","13449","","{""P0_Q0"":null,""ambiguous"":3,""objects"":2,""invisible"":1,""chaos"":2}","","","","","","","","","","","","","","","","","[]","Mitchell Elementary School","ChIJQYKjOkevPIgRNBcgyKyYsfs","42.2369664","-83.6929474","US","ARB","ARB","SCH","3550 Pittsview Dr, Ann Arbor, MI 48108, USA","us_arb_sch_a_4","270","us_arb_sch_a_4_270"
"trial","survey","77","1490238","0.0-2.0-75.0","5a6cfad8ab58b500015f56ef","625e209c10a247530e1c6964","625eeb4d5b63079208199a9b","3","12330","","{""P0_Q0"":null,""ambiguous"":4,""objects"":3,""invisible"":4,""chaos"":4}","","","","","","","","","","","","","","","","","[]","Nearby location of Kirihara Higashi Elementary School (jp_hik_sch_a_2)","ChIJ44W9Gy96AWARDa0LDoFiGi8","35.1236331","136.0869352","JP","HIK","HIK","SCH","1379 Tsuchidachō, Omihachiman, Shiga 523-0082, Japan","jp_hik_sch_b_2","0","jp_hik_sch_b_2_0"
"trial","survey","78","1502733","0.0-2.0-76.0","5a6cfad8ab58b500015f56ef","625e209c10a247530e1c6964","625eeb4d5b63079208199a9b","3","12474","","{""P0_Q0"":null,""ambiguous"":1,""objects"":2,""invisible"":3,""chaos"":2}","","","","","","","","","","","","","","","","","[]","Nearby location of Mitsui Garden Kyobashi Tokyo (jp_tok-c_htl_a_low2)","ChIJp2pEW_2LGGARnNNe1pDMCrc","35.6801013","139.7722917","JP","TOK","CTR","HTL","3 Chome-7 Nihonbashi, Chuo City, Tokyo 103-0027, Japan","jp_tok-c_htl_b_low2","270","jp_tok-c_htl_b_low2_270"
"demographics","survey-html-form","79","1516605","0.0-2.0-77.0","5a6cfad8ab58b500015f56ef","625e209c10a247530e1c6964","625eeb4d5b63079208199a9b","3","13865","","{""age"":""39"",""gender"":""male"",""gender-self-describe"":"""",""zipcode"":""93610""}","","","","","","","","","","","","","","","","","","","","","","","","","","","","",""
"demographics","survey","80","1533293","0.0-2.0-78.0","5a6cfad8ab58b500015f56ef","625e209c10a247530e1c6964","625eeb4d5b63079208199a9b","3","16661","","{""P0_Q0"":null,""outsideUS"":""No"",""outsideUS_years"":""""}","","","","","","","","","","","","","","","","","[]","","","","","","","","","","","",""
"end-survey","survey-text","81","1535979","0.0-2.0-79.0","5a6cfad8ab58b500015f56ef","625e209c10a247530e1c6964","625eeb4d5b63079208199a9b","3","2676","","{""Q0"":""""}","","","","","","","","","","","","","","","","","","","","","","","","","","","","",""
