"task","trial_type","trial_index","time_elapsed","internal_node_id","subject_id","study_id","session_id","group","rt","stimulus","response","width","height","webaudio","browser","browser_version","mobile","os","fullscreen","vsync_rate","webcam","microphone","success","timeout","failed_images","failed_audio","failed_video","accuracy","name","place_id","lat","lng","culture","loc1","loc2","loct","address","loc_id_prev","angle","loc_id"
"pavlovia-init","pavlovia","0","1399","0.0-0.0","5f18ff404f90fe1473c2e3b6","625e209c10a247530e1c6964","625ef05a2eedf308db2b75b4","11","","","","","","","","","","","","","","","","","","","","","","","","","","","","","","","",""
"consent","html-button-response","1","20556","0.0-1.0","5f18ff404f90fe1473c2e3b6","625e209c10a247530e1c6964","625ef05a2eedf308db2b75b4","11","19145","
        <div style=""font-size: 80%; max-width:700px"">
            <h2>Informed Consent</h2><br>
        
            <div style=""text-align: left"">
            <h3>Streetscape Perceptions</h3>
            <b>HUM00189138</b>
            <br><hr>
        
            <h4>DESCRIPTION</h4>
            <p>
                In this study, you will view Google Street View images. You will then answer questions about your impressions of the streetscapes presented in those images.
            </p><br>
        
            <h4>TIME INVOLVEMENT</h4>
            <p>Your participation will take approximately 30 minutes.</p><br>
        
            <h4>RISKS AND BENEFITS</h4>
            <p>
                The risks associated with this study are minimal. The benefits which may reasonably be expected to result from this study are none.  We cannot and do not guarantee or promise that you will receive any benefits from this study. 
            </p><br>
        
            <h4>PAYMENTS</h4>
            <p>You will be paid <b>$5.00</b> for your participation.</p><br>
        
            <h4>SUBJECT'S RIGHTS</h4>
            <p>
                If you have read this form and have decided to participate in this project, please understand your participation is voluntary and you have the right to withdraw your consent or discontinue participation at any time without penalty or loss of benefits to which you are otherwise entitled.  The alternative is not to participate.  You have the right to refuse to answer particular questions.  
            </p>
        
            <p>
                Your individual privacy will be maintained in all published and written data resulting from the study. Your responses will be kept confidential: you are given a participant code, and no one, not even the research team, can match that code with your identity. Your collected information may also be shared with other researchers as part of our dataset.
            </p><br>
        
            <h4>CONTACT INFORMATION</h4>
            <p>
                Questions: If you have any questions, concerns or complaints about this research, its procedures, risks and benefits, contact the Protocol Director, Nicholas Camp, npcamp@umich.edu, (443) 851-6783.
            </p>
        
            <p>
                If you have questions about your rights as a research participant, or wish to obtain information, ask questions or discuss any concerns about this study with someone other than the researcher(s), please contact the following:
                <br><br>
        
                University of Michigan<br>
                Health Sciences and Behavioral Sciences Institutional Review Board
                (IRB-HSBS)<br>
                2800 Plymouth Road <br>
                Building 520, Room 1169 <br>
                Ann Arbor, MI 48109-2800 <br>
                Telephone: 734-936-0933 or toll free (866) 936-0933 <br>
                Fax: 734-936-1852 <br />
                E-mail: irbhsbs@umich.edu <br>
            </p>
        
            <p>
                You can also contact the University of Michigan Compliance Hotline at 1-866-990-0111. You may also print this consent form to keep.
            </p>
            <br>
        
            <div class=""alert alert-warning""><b>
                Do you consent to participate in this study? If you consent to participate in this study, please click “Accept and continue.”
            </b></div>
            </div>
        </div>
    ","1","","","","","","","","","","","","","","","","","","","","","","","","","","","","",""
"browser-check","browser-check","2","21554","0.0-2.0-0.0","5f18ff404f90fe1473c2e3b6","625e209c10a247530e1c6964","625ef05a2eedf308db2b75b4","11","","","","1366","657","true","chrome","100.0.4896","false","Windows 8.1","true","61.41","true","true","","","","","","","","","","","","","","","","","",""
"","preload","3","22974","0.0-2.0-1.0","5f18ff404f90fe1473c2e3b6","625e209c10a247530e1c6964","625ef05a2eedf308db2b75b4","11","","","","","","","","","","","","","","","true","false","[]","[]","[]","","","","","","","","","","","","",""
"instructions","html-button-response","4","38388","0.0-2.0-2.0","5f18ff404f90fe1473c2e3b6","625e209c10a247530e1c6964","625ef05a2eedf308db2b75b4","11","15412","
        <div class=""text-container"">
            <h1>Welcome to the study!</h1>
            
            <div class=""text-left"">
                <p>
                    In this study, we are interested in how people think about different Google Street View images. Google Street View takes pictures of streets used for Google Earth and Google Maps. You’ll see Google Street View images of different places and answer some questions about each one.
                </p>
            </div>
            
            <img src='
            https://maps.googleapis.com/maps/api/streetview?size=640x320
            &location=37.783631,-122.432766
            &heading=80
            &pitch=2
            &fov=100
            &radius=150
            &key=AIzaSyC2OxRDg6qlzZDj7j0UAD2XyE0qWokLvvs
            &source=outdoor'>
        
            <br>
        <br>
    ","0","","","","","","","","","","","","","","","","","","","","","","","","","","","","",""
"instructions","html-button-response","5","1095572","0.0-2.0-3.0","5f18ff404f90fe1473c2e3b6","625e209c10a247530e1c6964","625ef05a2eedf308db2b75b4","11","1056869","
        <style>
            img.small {
            max-width: 100px;
            }
            li {
            text-indent: 40px;
            }
        </style>

        <div class=""text-container text-left"">
            <p>For each picture, we’d like your impressions of the scene:</p>
            
            <hr>
                Are there <b>clear, distinct boundaries</b> between objects in the scene, or are the <b>boundaries ambiguous or unclear</b>?
                
                <li>clear, distinct boundaries: <img class=""small"" src=""assets/img/ambiguous-low.png""></li>
                <li>ambiguous or unclear boundaries: <img class=""small"" src=""assets/img/ambiguous-high.png""></li>
            <hr>
            <br>
                Are there <b>only a few different objects</b> in the scene, or is there <b>a large number</b>?
            <br><br>
            <hr>
                Are only <b>a few parts</b> of the scene <b>invisible or obscured</b>, or are <b>many parts invisible or obscured</b>?
                
                <li>a few parts invisible or obscured: <img class=""small"" src=""assets/img/invisible-low.png""></li>
                <li>many parts invisible or obscured: <img class=""small"" src=""assets/img/invisible-high.png""></li>
            <hr>
            <br>
                Does the scene look <b>organized</b> or <b>chaotic</b> to you?
            <br><br>
            <hr>
            
            <p>
                There are no right or wrong answers: we are interested in <b>your</b> impression. Note that some images might have individual buildings or faces blurred for privacy. Please ignore these when making your judgments.
            </p>
        </div>
        <br>
    ","0","","","","","","","","","","","","","","","","","","","","","","","","","","","","",""
"instructions","html-button-response","6","1103252","0.0-2.0-4.0","5f18ff404f90fe1473c2e3b6","625e209c10a247530e1c6964","625ef05a2eedf308db2b75b4","11","7675","
        <div class=""text-container text-left"">
            <p>Please make sure you are doing this study in an area where you can focus and complete the survey in one sitting.</p>

            <p>Don’t spend too much time on any one picture, and, again go with your gut impression!</p>
            
            <p>The study should take about 30 minutes. We’ll let you know when you’re halfway through.</p>
        </div>
            
        <h3>Ready? Click next to get started!</h3>
        <br>
    ","0","","","","","","","","","","","","","","","","","","","","","","","","","","","","",""
"trial","survey","7","1160880","0.0-2.0-5.0","5f18ff404f90fe1473c2e3b6","625e209c10a247530e1c6964","625ef05a2eedf308db2b75b4","11","57346","","{""P0_Q0"":null,""ambiguous"":4,""objects"":3,""invisible"":5,""chaos"":4}","","","","","","","","","","","","","","","","","[]","Nearby location of Nagahama Shiritsu Torahime Elementary School (jp_tor_sch_a_1)","ChIJfT7yNZ8oAmAROTHUpaMv9Ak","35.419735","136.265362","JP","TOR","TOR","SCH","2410 Miyabechō, Nagahama, Shiga 529-0112, Japan","jp_tor_sch_b_1","180","jp_tor_sch_b_1_180"
"trial","survey","8","1223909","0.0-2.0-6.0","5f18ff404f90fe1473c2e3b6","625e209c10a247530e1c6964","625ef05a2eedf308db2b75b4","11","62972","","{""P0_Q0"":null,""ambiguous"":3,""objects"":4,""invisible"":4,""chaos"":null}","","","","","","","","","","","","","","","","","[]","Nearby location of Horace Mann Barnard Elementary (us_nyc-p_sch_a_1)","ChIJ9ds6urrzwokRAWUJ8d6GdJk","40.8906469","-73.9015387","US","NYC","PER","SCH","Chrysostom Hall, 4513 Manhattan College Pkwy, Bronx, NY 10471, USA","us_nyc-p_sch_b_1","270","us_nyc-p_sch_b_1_270"
"trial","survey","9","1276510","0.0-2.0-7.0","5f18ff404f90fe1473c2e3b6","625e209c10a247530e1c6964","625ef05a2eedf308db2b75b4","11","52530","","{""P0_Q0"":null,""ambiguous"":4,""objects"":3,""invisible"":3,""chaos"":3}","","","","","","","","","","","","","","","","","[]","Hotel Villa Fontaine Nihombashi-Hakozaki","HSTYOASY","35.68042","139.78604","JP","TOK","CTR","HTL","20-10, NIHOMBASHI-HAKOZAKI-CHO, TOKYO 103-0015","jp_tok-c_htl_a_low1","0","jp_tok-c_htl_a_low1_0"
"trial","survey","10","1332828","0.0-2.0-8.0","5f18ff404f90fe1473c2e3b6","625e209c10a247530e1c6964","625ef05a2eedf308db2b75b4","11","56263","","{""P0_Q0"":null,""ambiguous"":2,""objects"":2,""invisible"":2,""chaos"":2}","","","","","","","","","","","","","","","","","[]","Nearby location of Comfort Inn (us_chl_htl_a_low1)","ChIJ7WwDQLjOPIgRZf5dwFJ3f34","42.2988455","-84.0286729","US","CHL","CHL","HTL","1600 Commerce Park Dr STE 300, Chelsea, MI 48118, USA","us_chl_htl_b_low1","270","us_chl_htl_b_low1_270"
"trial","survey","11","1368008","0.0-2.0-9.0","5f18ff404f90fe1473c2e3b6","625e209c10a247530e1c6964","625ef05a2eedf308db2b75b4","11","35124","","{""P0_Q0"":null,""ambiguous"":4,""objects"":4,""invisible"":4,""chaos"":5}","","","","","","","","","","","","","","","","","[]","Nearby location of United States Postal Service (us_nyc-c_pos_a_5)","ChIJTw7oFwP0wokR0VL0nLNaknc","40.857723","-73.93222","US","NYC","CTR","POS","Broadway/W 192 St, New York, NY 10040, USA","us_nyc-c_pos_b_5","0","us_nyc-c_pos_b_5_0"
"trial","survey","12","1412148","0.0-2.0-10.0","5f18ff404f90fe1473c2e3b6","625e209c10a247530e1c6964","625ef05a2eedf308db2b75b4","11","44058","","{""P0_Q0"":null,""ambiguous"":4,""objects"":4,""invisible"":5,""chaos"":5}","","","","","","","","","","","","","","","","","[]","United States Postal Service","ChIJRXiunQP0wokRdMaoXdky9Do","40.8589783","-73.9311402","US","NYC","CTR","POS","4558 Broadway, New York, NY 10040, USA","us_nyc-c_pos_a_5","0","us_nyc-c_pos_a_5_0"
"trial","survey","13","1455315","0.0-2.0-11.0","5f18ff404f90fe1473c2e3b6","625e209c10a247530e1c6964","625ef05a2eedf308db2b75b4","11","43112","","{""P0_Q0"":null,""ambiguous"":5,""objects"":1,""invisible"":4,""chaos"":2}","","","","","","","","","","","","","","","","","[]","Nearby location of Ann Arbor Christian School (us_arb_sch_a_2)","ChIJx979uW-tPIgRK2esjhwtDDE","42.352939","-83.7497999","US","ARB","ARB","SCH","5460 Whitmore Lake Rd, Ann Arbor, MI 48105, USA","us_arb_sch_b_2","180","us_arb_sch_b_2_180"
"trial","survey","14","1508612","0.0-2.0-12.0","5f18ff404f90fe1473c2e3b6","625e209c10a247530e1c6964","625ef05a2eedf308db2b75b4","11","53241","","{""P0_Q0"":null,""ambiguous"":3,""objects"":5,""invisible"":5,""chaos"":4}","","","","","","","","","","","","","","","","","[]","William O'Shea Campus","ChIJ2WLCL4lYwokRRLWnWyx-j_M","40.7810152","-73.9779047","US","NYC","CTR","SCH","100 W 77th St, New York, NY 10024, USA","us_nyc-c_sch_a_6","0","us_nyc-c_sch_a_6_0"
"trial","survey","15","1551028","0.0-2.0-13.0","5f18ff404f90fe1473c2e3b6","625e209c10a247530e1c6964","625ef05a2eedf308db2b75b4","11","42366","","{""P0_Q0"":null,""ambiguous"":2,""objects"":4,""invisible"":5,""chaos"":5}","","","","","","","","","","","","","","","","","[]","豊島区立朝日小学校 ひいらぎ学級","ChIJtauqIoKNGGARrjSxFT4oZHo","35.741097","139.73295","JP","TOK","CTR","SCH","Japan, 〒170-0002 Tokyo, Toshima City, Sugamo, 5-chōme−33−１ 豊島区立朝日小学校","jp_tok-c_sch_a_2","180","jp_tok-c_sch_a_2_180"
"trial","survey","16","1591769","0.0-2.0-14.0","5f18ff404f90fe1473c2e3b6","625e209c10a247530e1c6964","625ef05a2eedf308db2b75b4","11","40683","","{""P0_Q0"":null,""ambiguous"":2,""objects"":2,""invisible"":1,""chaos"":1}","","","","","","","","","","","","","","","","","[]","Nearby location of United States Postal Service (us_nyc-c_pos_a_6)","ChIJ63f0hz9ZwokRTruThu3Ng6s","40.7682731","-73.9822808","US","NYC","CTR","POS","15 Columbus Cir, New York, NY 10019, USA","us_nyc-c_pos_b_6","270","us_nyc-c_pos_b_6_270"
"trial","survey","17","1649839","0.0-2.0-15.0","5f18ff404f90fe1473c2e3b6","625e209c10a247530e1c6964","625ef05a2eedf308db2b75b4","11","58021","","{""P0_Q0"":null,""ambiguous"":5,""objects"":4,""invisible"":5,""chaos"":4}","","","","","","","","","","","","","","","","","[]","Nearby location of Yotsuya Station Post Office (jp_tok-c_pos_a_3)","ChIJ5QGWpIuMGGARM3syjI6N6t8","35.6864179","139.7285004","JP","TOK","CTR","POS","1-chōme-8-3 Yotsuya, Shinjuku City, Tokyo 160-0004, Japan","jp_tok-c_pos_b_3","90","jp_tok-c_pos_b_3_90"
"trial","survey","18","1684738","0.0-2.0-16.0","5f18ff404f90fe1473c2e3b6","625e209c10a247530e1c6964","625ef05a2eedf308db2b75b4","11","34850","","{""P0_Q0"":null,""ambiguous"":4,""objects"":2,""invisible"":4,""chaos"":2}","","","","","","","","","","","","","","","","","[]","Nagahama Shiritsu Torahime Elementary School","ChIJWVB8Ap8oAmARFLmHXCq8zOo","35.4207316","136.2639813","JP","TOR","TOR","SCH","88 Gomura, Nagahama, Shiga 529-0141, Japan","jp_tor_sch_a_1","180","jp_tor_sch_a_1_180"
"trial","survey","19","1726682","0.0-2.0-17.0","5f18ff404f90fe1473c2e3b6","625e209c10a247530e1c6964","625ef05a2eedf308db2b75b4","11","41890","","{""P0_Q0"":null,""ambiguous"":5,""objects"":2,""invisible"":5,""chaos"":2}","","","","","","","","","","","","","","","","","[]","Nearby location of United States Postal Service (us_arb_pos_a_4)","ChIJR4RkkESuPIgRZJrbYhGLI8k","42.2762108","-83.7323861","US","ARB","ARB","POS","1315 Washtenaw Ave, Ann Arbor, MI 48104, USA","us_arb_pos_b_4","90","us_arb_pos_b_4_90"
"trial","survey","20","1760343","0.0-2.0-18.0","5f18ff404f90fe1473c2e3b6","625e209c10a247530e1c6964","625ef05a2eedf308db2b75b4","11","33616","","{""P0_Q0"":null,""ambiguous"":3,""objects"":5,""invisible"":5,""chaos"":5}","","","","","","","","","","","","","","","","","[]","Nearby location of Setagaya Okamoto Post Office (jp_tok-p_pos_a_1)","ChIJAVgBafjzGGAR0HytC8xomug","35.6274419","139.618016","JP","TOK","PER","POS","1-chōme-37-3 Okamoto, Setagaya City, Tokyo 157-0076, Japan","jp_tok-p_pos_b_1","270","jp_tok-p_pos_b_1_270"
"trial","survey","21","1798185","0.0-2.0-19.0","5f18ff404f90fe1473c2e3b6","625e209c10a247530e1c6964","625ef05a2eedf308db2b75b4","11","37795","","{""P0_Q0"":null,""ambiguous"":5,""objects"":1,""invisible"":3,""chaos"":2}","","","","","","","","","","","","","","","","","[]","Nearby location of Comfort Inn (us_chl_htl_a_low1)","ChIJ7WwDQLjOPIgRZf5dwFJ3f34","42.2988455","-84.0286729","US","CHL","CHL","HTL","1600 Commerce Park Dr STE 300, Chelsea, MI 48118, USA","us_chl_htl_b_low1","180","us_chl_htl_b_low1_180"
"trial","survey","22","1851002","0.0-2.0-20.0","5f18ff404f90fe1473c2e3b6","625e209c10a247530e1c6964","625ef05a2eedf308db2b75b4","11","52769","","{""P0_Q0"":null,""ambiguous"":3,""objects"":3,""invisible"":3,""chaos"":3}","","","","","","","","","","","","","","","","","[]","PS 146 Anna M. Short School","ChIJtwKR6hz2wokRPs0Ro5kWXS0","40.7897123","-73.9393805","US","NYC","CTR","SCH","421 E 106th St #4896, New York, NY 10029, USA","us_nyc-c_sch_a_5","0","us_nyc-c_sch_a_5_0"
"trial","survey","23","1893354","0.0-2.0-21.0","5f18ff404f90fe1473c2e3b6","625e209c10a247530e1c6964","625ef05a2eedf308db2b75b4","11","42300","","{""P0_Q0"":null,""ambiguous"":3,""objects"":3,""invisible"":4,""chaos"":2}","","","","","","","","","","","","","","","","","[]","P.S. 020 John Bowne","ChIJReGEShFgwokRiwUXE2jYFz4","40.7583819","-73.8243949","US","NYC","PER","SCH","142-30 Barclay Ave, Queens, NY 11355, USA","us_nyc-p_sch_a_5","270","us_nyc-p_sch_a_5_270"
"trial","survey","24","1928380","0.0-2.0-22.0","5f18ff404f90fe1473c2e3b6","625e209c10a247530e1c6964","625ef05a2eedf308db2b75b4","11","34983","","{""P0_Q0"":null,""ambiguous"":3,""objects"":1,""invisible"":1,""chaos"":5}","","","","","","","","","","","","","","","","","[]","豊島区立朝日小学校 ひいらぎ学級","ChIJtauqIoKNGGARrjSxFT4oZHo","35.741097","139.73295","JP","TOK","CTR","SCH","Japan, 〒170-0002 Tokyo, Toshima City, Sugamo, 5-chōme−33−１ 豊島区立朝日小学校","jp_tok-c_sch_a_2","90","jp_tok-c_sch_a_2_90"
"trial","survey","25","1964568","0.0-2.0-23.0","5f18ff404f90fe1473c2e3b6","625e209c10a247530e1c6964","625ef05a2eedf308db2b75b4","11","36134","","{""P0_Q0"":null,""ambiguous"":3,""objects"":2,""invisible"":1,""chaos"":1}","","","","","","","","","","","","","","","","","[]","Kotō 3rd Elementary School","ChIJyWBTvO3XA2ARubFCKa9mR4A","35.130888","136.225113","JP","HIK","HIK","SCH","340 Kotakarichō, Higashiomi, Shiga 527-0125, Japan","jp_hik_sch_a_3","180","jp_hik_sch_a_3_180"
"trial","survey","26","1993111","0.0-2.0-24.0","5f18ff404f90fe1473c2e3b6","625e209c10a247530e1c6964","625ef05a2eedf308db2b75b4","11","28496","","{""P0_Q0"":null,""ambiguous"":2,""objects"":5,""invisible"":5,""chaos"":5}","","","","","","","","","","","","","","","","","[]","Jingūmae 6 Post Office","ChIJO43ODKSMGGAR5KiNqtge1mc","35.6666411","139.7050847","JP","TOK","CTR","POS","6-chōme-12-28 Jingūmae, Shibuya City, Tokyo 150-0001, Japan","jp_tok-c_pos_a_2","180","jp_tok-c_pos_a_2_180"
"trial","survey","27","2049008","0.0-2.0-25.0","5f18ff404f90fe1473c2e3b6","625e209c10a247530e1c6964","625ef05a2eedf308db2b75b4","11","55844","","{""P0_Q0"":null,""ambiguous"":3,""objects"":4,""invisible"":5,""chaos"":3}","","","","","","","","","","","","","","","","","[]","Nearby location of Tokyo High Court Post Office (jp_tok-c_pos_a_1)","ChIJX7W2HiiLGGARCTbu8qla3Mw","35.6737726","139.7542634","JP","TOK","CTR","POS","1 Hibiyakoen, Chiyoda City, Tokyo 100-0012, Japan","jp_tok-c_pos_b_1","180","jp_tok-c_pos_b_1_180"
"trial","survey","28","2083834","0.0-2.0-26.0","5f18ff404f90fe1473c2e3b6","625e209c10a247530e1c6964","625ef05a2eedf308db2b75b4","11","34775","","{""P0_Q0"":null,""ambiguous"":3,""objects"":1,""invisible"":2,""chaos"":4}","","","","","","","","","","","","","","","","","[]","Nearby location of United States Postal Service (us_nyc-p_pos_a_4)","ChIJQdQ0qElawokRA-jOMdpWwLc","40.6945583","-73.9912686","US","NYC","PER","POS","154 Pierrepont St, Brooklyn, NY 11201, USA","us_nyc-p_pos_b_4","180","us_nyc-p_pos_b_4_180"
"trial","survey","29","2118605","0.0-2.0-27.0","5f18ff404f90fe1473c2e3b6","625e209c10a247530e1c6964","625ef05a2eedf308db2b75b4","11","34727","","{""P0_Q0"":null,""ambiguous"":2,""objects"":4,""invisible"":5,""chaos"":5}","","","","","","","","","","","","","","","","","[]","Nearby location of Nerima Sakuradai Post Office (jp_tok-p_pos_a_5)","ChIJlUrhPw3tGGARYz3NEa-AcSY","35.7359141","139.6591792","JP","TOK","PER","POS","Japan, 〒176-0012 Tokyo, Nerima City, Toyotamakita, 4-chōme−12−６ 岡野マンション","jp_tok-p_pos_b_5","90","jp_tok-p_pos_b_5_90"
"trial","survey","30","2194696","0.0-2.0-28.0","5f18ff404f90fe1473c2e3b6","625e209c10a247530e1c6964","625ef05a2eedf308db2b75b4","11","76048","","{""P0_Q0"":null,""ambiguous"":4,""objects"":2,""invisible"":4,""chaos"":1}","","","","","","","","","","","","","","","","","[]","Nearby location of Bronx Charter School for Excellence 3 (us_nyc-p_sch_a_6)","ChIJe_mvGSPzwokRCYjGIqRdQGo","40.8872687","-73.8619035","US","NYC","PER","SCH","672 E 224th St, Bronx, NY 10466, USA","us_nyc-p_sch_b_6","90","us_nyc-p_sch_b_6_90"
"trial","survey","31","2235272","0.0-2.0-29.0","5f18ff404f90fe1473c2e3b6","625e209c10a247530e1c6964","625ef05a2eedf308db2b75b4","11","40529","","{""P0_Q0"":null,""ambiguous"":4,""objects"":4,""invisible"":3,""chaos"":2}","","","","","","","","","","","","","","","","","[]","Nearby location of Jingūmae 6 Post Office (jp_tok-c_pos_a_2)","ChIJo2FXfqaMGGARaHWKnjoqihY","35.665387","139.7037685","JP","TOK","CTR","POS","6-chōme-16-6 Jingūmae, Shibuya City, Tokyo 150-0001, Japan","jp_tok-c_pos_b_2","270","jp_tok-c_pos_b_2_270"
"trial","survey","32","2298336","0.0-2.0-30.0","5f18ff404f90fe1473c2e3b6","625e209c10a247530e1c6964","625ef05a2eedf308db2b75b4","11","63013","","{""P0_Q0"":null,""ambiguous"":4,""objects"":2,""invisible"":1,""chaos"":2}","","","","","","","","","","","","","","","","","[]","Nearby location of Mercer Hotel (us_nyc-c_htl_a_ultra2)","ChIJBQxsB49ZwokRbGyFLxfuImc","40.7247177","-73.9975539","US","NYC","CTR","HTL","570 Broadway, New York, NY 10012, USA","us_nyc-c_htl_b_ultra2","90","us_nyc-c_htl_b_ultra2_90"
"trial","survey","33","2356387","0.0-2.0-31.0","5f18ff404f90fe1473c2e3b6","625e209c10a247530e1c6964","625ef05a2eedf308db2b75b4","11","58004","","{""P0_Q0"":null,""ambiguous"":5,""objects"":1,""invisible"":4,""chaos"":2}","","","","","","","","","","","","","","","","","[]","Yotsuya Station Post Office","ChIJM8cHVYqMGGARUz2wtp-skCo","35.6875819","139.7296034","JP","TOK","CTR","POS","Japan, 〒160-0004 Tokyo, Shinjuku City, Yotsuya, 1-chōme−６−１","jp_tok-c_pos_a_3","90","jp_tok-c_pos_a_3_90"
"trial","survey","34","2425058","0.0-2.0-32.0","5f18ff404f90fe1473c2e3b6","625e209c10a247530e1c6964","625ef05a2eedf308db2b75b4","11","68620","","{""P0_Q0"":null,""ambiguous"":2,""objects"":2,""invisible"":4,""chaos"":3}","","","","","","","","","","","","","","","","","[]","HOTEL ALLAMANDA AOYAMA","FGTYOHAA","35.67122","139.71765","JP","TOK","CTR","HTL","2-7-13 KITA AOYAMA MINATO-KU, TOKYO 107 0061","jp_tok-c_htl_a_high1","90","jp_tok-c_htl_a_high1_90"
"trial","survey","35","2498745","0.0-2.0-33.0","5f18ff404f90fe1473c2e3b6","625e209c10a247530e1c6964","625ef05a2eedf308db2b75b4","11","73637","","{""P0_Q0"":null,""ambiguous"":5,""objects"":2,""invisible"":5,""chaos"":2}","","","","","","","","","","","","","","","","","[]","Days Inn by Wyndham Ann Arbor","DIARB238","42.25268","-83.68165","US","ARB","ARB","HTL","2380 CARPENTER ROAD, ANN ARBOR, MI 48108","us_arb_htl_a_low2","0","us_arb_htl_a_low2_0"
"trial","survey","36","2536642","0.0-2.0-34.0","5f18ff404f90fe1473c2e3b6","625e209c10a247530e1c6964","625ef05a2eedf308db2b75b4","11","37854","","{""P0_Q0"":null,""ambiguous"":2,""objects"":5,""invisible"":5,""chaos"":2}","","","","","","","","","","","","","","","","","[]","Nearby location of 長浜BGホテル (us_chl_htl_a_mid1)","ChIJ2S_MbyspAmARkndCsjafTIg","35.3930344","136.2840486","JP","TOR","TOR","HTL","222-1 Kawasakichō, Nagahama, Shiga 526-0846, Japan","jp_tor_htl_b_mid1","270","jp_tor_htl_b_mid1_270"
"trial","survey","37","2562188","0.0-2.0-35.0","5f18ff404f90fe1473c2e3b6","625e209c10a247530e1c6964","625ef05a2eedf308db2b75b4","11","25464","","{""P0_Q0"":null,""ambiguous"":5,""objects"":5,""invisible"":5,""chaos"":5}","","","","","","","","","","","","","","","","","[]","Nearby location of Bunkyo Otsuka 3 Post Office (jp_tok-c_pos_a_7)","ChIJ8yJGd6-NGGARH10utNOusFo","35.7205268","139.7394333","JP","TOK","CTR","POS","3-chōme-35-1 Ōtsuka, Bunkyo City, Tokyo 112-0012, Japan","jp_tok-c_pos_b_7","90","jp_tok-c_pos_b_7_90"
"trial","survey","38","2607017","0.0-2.0-36.0","5f18ff404f90fe1473c2e3b6","625e209c10a247530e1c6964","625ef05a2eedf308db2b75b4","11","44783","","{""P0_Q0"":null,""ambiguous"":3,""objects"":1,""invisible"":2,""chaos"":4}","","","","","","","","","","","","","","","","","[]","Oizumi Daini Elementary School","ChIJOT0Kk9nuGGARlr5-SQA1DDo","35.744542","139.573028","JP","TOK","PER","SCH","4-chōme-29-11 Minamiōizumi, Nerima City, Tokyo 178-0064, Japan","jp_tok-p_sch_a_6","180","jp_tok-p_sch_a_6_180"
"trial","survey","39","2650961","0.0-2.0-37.0","5f18ff404f90fe1473c2e3b6","625e209c10a247530e1c6964","625ef05a2eedf308db2b75b4","11","43901","","{""P0_Q0"":null,""ambiguous"":4,""objects"":3,""invisible"":4,""chaos"":3}","","","","","","","","","","","","","","","","","[]","United States Postal Service","ChIJ7bddbC9ZwokRPh32cXCjIis","40.7414054","-74.0067214","US","NYC","CTR","POS","426A W 14th St, New York, NY 10014, USA","us_nyc-c_pos_a_8","90","us_nyc-c_pos_a_8_90"
"trial","survey","40","2675406","0.0-2.0-38.0","5f18ff404f90fe1473c2e3b6","625e209c10a247530e1c6964","625ef05a2eedf308db2b75b4","11","24402","","{""P0_Q0"":null,""ambiguous"":1,""objects"":1,""invisible"":1,""chaos"":1}","","","","","","","","","","","","","","","","","[]","Nearby location of United States Postal Service (us_nyc-p_pos_a_6)","ChIJ3R3ukfxEwokRG8NgRpaxZSY","40.6042186","-73.9781935","US","NYC","PER","POS","1776 W 5th St, Brooklyn, NY 11223, USA","us_nyc-p_pos_b_6","270","us_nyc-p_pos_b_6_270"
"trial","survey","41","2703279","0.0-2.0-39.0","5f18ff404f90fe1473c2e3b6","625e209c10a247530e1c6964","625ef05a2eedf308db2b75b4","11","27827","","{""P0_Q0"":null,""ambiguous"":2,""objects"":1,""invisible"":1,""chaos"":1}","","","","","","","","","","","","","","","","","[]","Nearby location of United States Postal Service (us_nyc-p_pos_a_4)","ChIJQdQ0qElawokRA-jOMdpWwLc","40.6945583","-73.9912686","US","NYC","PER","POS","154 Pierrepont St, Brooklyn, NY 11201, USA","us_nyc-p_pos_b_4","0","us_nyc-p_pos_b_4_0"
"attention-check","survey","42","2724347","0.0-2.0-40.0","5f18ff404f90fe1473c2e3b6","625e209c10a247530e1c6964","625ef05a2eedf308db2b75b4","11","21028","","{""P0_Q0"":null,""ambiguous"":null,""objects"":null,""invisible"":null,""chaos"":null}","","","","","","","","","","","","","","","","","[]","","","","","","","","","","","",""
"half-way","html-button-response","43","2740121","0.0-2.0-41.0","5f18ff404f90fe1473c2e3b6","625e209c10a247530e1c6964","625ef05a2eedf308db2b75b4","11","null","
            <h3>You are now half way through the study.</h3>
            <p>Please take a quick, 15-second break before you continue.</p>
            <img src='assets/img/countdown-15.gif'>
            <p>The study will automatically advance forward after the countdown is complete. However, you may click ""Next"" to advance forward now if you wish.</p>
        ","null","","","","","","","","","","","","","","","","","","","","","","","","","","","","",""
"trial","survey","44","2785760","0.0-2.0-42.0","5f18ff404f90fe1473c2e3b6","625e209c10a247530e1c6964","625ef05a2eedf308db2b75b4","11","45543","","{""P0_Q0"":null,""ambiguous"":5,""objects"":4,""invisible"":4,""chaos"":3}","","","","","","","","","","","","","","","","","[]","Nearby location of United States Postal Service (us_nyc-p_pos_a_2)","ChIJLSVr_e-JwokR4naG8qzZU4M","40.769638","-73.735929","US","NYC","PER","POS","252-02 Northern Blvd, Flushing, NY 11362, USA","us_nyc-p_pos_b_2","90","us_nyc-p_pos_b_2_90"
"trial","survey","45","2822009","0.0-2.0-43.0","5f18ff404f90fe1473c2e3b6","625e209c10a247530e1c6964","625ef05a2eedf308db2b75b4","11","36211","","{""P0_Q0"":null,""ambiguous"":3,""objects"":3,""invisible"":4,""chaos"":3}","","","","","","","","","","","","","","","","","[]","Shinshuku Elementary School","ChIJM1VHO19gGGARYHbYkz0tS8E","35.5572368","139.7158925","JP","TOK","PER","SCH","1-chōme-5-1 Kamatahonchō, Ota City, Tokyo 144-0053, Japan","jp_tok-p_sch_a_2","90","jp_tok-p_sch_a_2_90"
"trial","survey","46","2865119","0.0-2.0-44.0","5f18ff404f90fe1473c2e3b6","625e209c10a247530e1c6964","625ef05a2eedf308db2b75b4","11","43067","","{""P0_Q0"":null,""ambiguous"":4,""objects"":2,""invisible"":3,""chaos"":4}","","","","","","","","","","","","","","","","","[]","Nearby location of P.S. 020 John Bowne (us_nyc-p_sch_a_5)","ChIJ-7aNoRZgwokRFC2hF6Idg2E","40.7572054","-73.8229217","US","NYC","PER","SCH","14231 Franklin Ave, Queens, NY 11355, USA","us_nyc-p_sch_b_5","270","us_nyc-p_sch_b_5_270"
"trial","survey","47","2901836","0.0-2.0-45.0","5f18ff404f90fe1473c2e3b6","625e209c10a247530e1c6964","625ef05a2eedf308db2b75b4","11","36676","","{""P0_Q0"":null,""ambiguous"":2,""objects"":1,""invisible"":3,""chaos"":1}","","","","","","","","","","","","","","","","","[]","Quality Inn and Suites Ann Arbor Hwy 23","QIARB356","42.25224","-83.68168","US","ARB","ARB","HTL","2376 CARPENTER ROAD, ANN ARBOR, MI 48018","us_arb_htl_a_mid2","90","us_arb_htl_a_mid2_90"
"trial","survey","48","2931819","0.0-2.0-46.0","5f18ff404f90fe1473c2e3b6","625e209c10a247530e1c6964","625ef05a2eedf308db2b75b4","11","29945","","{""P0_Q0"":null,""ambiguous"":5,""objects"":4,""invisible"":5,""chaos"":3}","","","","","","","","","","","","","","","","","[]","Kanponoyado Hikone","ChIJlbdbLicrAmARI9pD-bcXKlg","35.2872369","136.2493256","JP","HIK","HIK","HTL","3759 Matsubarachō, Hikone, Shiga 522-0002, Japan","jp_hik_htl_a_mid1","270","jp_hik_htl_a_mid1_270"
"trial","survey","49","2968925","0.0-2.0-47.0","5f18ff404f90fe1473c2e3b6","625e209c10a247530e1c6964","625ef05a2eedf308db2b75b4","11","37064","","{""P0_Q0"":null,""ambiguous"":3,""objects"":4,""invisible"":5,""chaos"":4}","","","","","","","","","","","","","","","","","[]","The Williamsburg Hotel","WVNYCTWH","40.72173","-73.95801","US","NYC","PER","HTL","96 WYTHE AVENUE, BROOKLYN, NY 11249","us_nyc-p_htl_a_high1","180","us_nyc-p_htl_a_high1_180"
"trial","survey","50","3017107","0.0-2.0-48.0","5f18ff404f90fe1473c2e3b6","625e209c10a247530e1c6964","625ef05a2eedf308db2b75b4","11","48138","","{""P0_Q0"":null,""ambiguous"":4,""objects"":3,""invisible"":5,""chaos"":3}","","","","","","","","","","","","","","","","","[]","Nearby location of Horace Mann Barnard Elementary (us_nyc-p_sch_a_1)","ChIJ9ds6urrzwokRAWUJ8d6GdJk","40.8906469","-73.9015387","US","NYC","PER","SCH","Chrysostom Hall, 4513 Manhattan College Pkwy, Bronx, NY 10471, USA","us_nyc-p_sch_b_1","90","us_nyc-p_sch_b_1_90"
"trial","survey","51","3049896","0.0-2.0-49.0","5f18ff404f90fe1473c2e3b6","625e209c10a247530e1c6964","625ef05a2eedf308db2b75b4","11","32745","","{""P0_Q0"":null,""ambiguous"":3,""objects"":2,""invisible"":1,""chaos"":3}","","","","","","","","","","","","","","","","","[]","MyStays Asakusa","HSTYOACG","35.70393","139.79741","JP","TOK","PER","HTL","1-21-11, HONJO, TOKYO 130-0004","jp_tok-p_htl_a_low1","270","jp_tok-p_htl_a_low1_270"
"trial","survey","52","3082512","0.0-2.0-50.0","5f18ff404f90fe1473c2e3b6","625e209c10a247530e1c6964","625ef05a2eedf308db2b75b4","11","32570","","{""P0_Q0"":null,""ambiguous"":2,""objects"":1,""invisible"":1,""chaos"":1}","","","","","","","","","","","","","","","","","[]","Nearby location of The Ritz-Carlton Tokyo (jp_tok-c_htl_a_ultra2)","ChIJdZpNkoKLGGARPstgSDOpX5o","35.6651495","139.7330667","JP","TOK","CTR","HTL","4-chōme-3-24 Roppongi, Minato City, Tokyo 106-0032, Japan","jp_tok-c_htl_b_ultra2","0","jp_tok-c_htl_b_ultra2_0"
"trial","survey","53","3119969","0.0-2.0-51.0","5f18ff404f90fe1473c2e3b6","625e209c10a247530e1c6964","625ef05a2eedf308db2b75b4","11","37414","","{""P0_Q0"":null,""ambiguous"":4,""objects"":5,""invisible"":5,""chaos"":4}","","","","","","","","","","","","","","","","","[]","Nearby location of Adahi Sano Post Office (jp_hik_pos_a_3)","ChIJ687ZfeOPGGARr0sg29_jaNA","35.7854552","139.8422615","JP","HIK","HIK","POS","1-chōme-19-3 Sano, Adachi City, Tokyo 121-0053, Japan","jp_hik_pos_b_3","270","jp_hik_pos_b_3_270"
"trial","survey","54","3156560","0.0-2.0-52.0","5f18ff404f90fe1473c2e3b6","625e209c10a247530e1c6964","625ef05a2eedf308db2b75b4","11","36542","","{""P0_Q0"":null,""ambiguous"":2,""objects"":2,""invisible"":1,""chaos"":3}","","","","","","","","","","","","","","","","","[]","Jingūmae 6 Post Office","ChIJO43ODKSMGGAR5KiNqtge1mc","35.6666411","139.7050847","JP","TOK","CTR","POS","6-chōme-12-28 Jingūmae, Shibuya City, Tokyo 150-0001, Japan","jp_tok-c_pos_a_2","0","jp_tok-c_pos_a_2_0"
"trial","survey","55","3187282","0.0-2.0-53.0","5f18ff404f90fe1473c2e3b6","625e209c10a247530e1c6964","625ef05a2eedf308db2b75b4","11","30678","","{""P0_Q0"":null,""ambiguous"":2,""objects"":1,""invisible"":3,""chaos"":1}","","","","","","","","","","","","","","","","","[]","Nearby location of HOTEL K5 (jp_tok-c_htl_a_mid1)","ChIJb-Z94FCJGGARIe-5JBrSwok","35.6841632","139.7792313","JP","TOK","CTR","HTL","19-12 Nihonbashikoamichō, Chuo City, Tokyo 103-0016, Japan","jp_tok-c_htl_b_mid1","90","jp_tok-c_htl_b_mid1_90"
"trial","survey","56","3217812","0.0-2.0-54.0","5f18ff404f90fe1473c2e3b6","625e209c10a247530e1c6964","625ef05a2eedf308db2b75b4","11","30482","","{""P0_Q0"":null,""ambiguous"":4,""objects"":5,""invisible"":5,""chaos"":4}","","","","","","","","","","","","","","","","","[]","豊島区立朝日小学校 ひいらぎ学級","ChIJtauqIoKNGGARrjSxFT4oZHo","35.741097","139.73295","JP","TOK","CTR","SCH","Japan, 〒170-0002 Tokyo, Toshima City, Sugamo, 5-chōme−33−１ 豊島区立朝日小学校","jp_tok-c_sch_a_2","270","jp_tok-c_sch_a_2_270"
"trial","survey","57","3245212","0.0-2.0-55.0","5f18ff404f90fe1473c2e3b6","625e209c10a247530e1c6964","625ef05a2eedf308db2b75b4","11","27351","","{""P0_Q0"":null,""ambiguous"":2,""objects"":3,""invisible"":4,""chaos"":1}","","","","","","","","","","","","","","","","","[]","Nearby location of Hotel Kaito (jp_hik_htl_a_low2)","ChIJK566KTuSAWARF4Kp9393J_4","35.3976612","136.0302169","JP","HIK","HIK","HTL","Japan, 〒520-1631 Shiga, Takashima, Imazuchō Nakoji, 2-chōme−６−３２","jp_hik_htl_b_low2","0","jp_hik_htl_b_low2_0"
"trial","survey","58","3297418","0.0-2.0-56.0","5f18ff404f90fe1473c2e3b6","625e209c10a247530e1c6964","625ef05a2eedf308db2b75b4","11","52163","","{""P0_Q0"":null,""ambiguous"":1,""objects"":2,""invisible"":1,""chaos"":1}","","","","","","","","","","","","","","","","","[]","The Pearl NYC","XTLGATPH","40.76144","-73.98553","US","NYC","CTR","HTL","233 W 49TH ST, NEW YORK, NY 10019","us_nyc-c_htl_a_high1","180","us_nyc-c_htl_a_high1_180"
"trial","survey","59","3341230","0.0-2.0-57.0","5f18ff404f90fe1473c2e3b6","625e209c10a247530e1c6964","625ef05a2eedf308db2b75b4","11","43771","","{""P0_Q0"":null,""ambiguous"":3,""objects"":3,""invisible"":4,""chaos"":3}","","","","","","","","","","","","","","","","","[]","Nearby location of The Hoxton Williamsburg (us_nyc-p_htl_a_high2)","ChIJyY4VgmdZwokRJvRjPQxu5_w","40.7197786","-73.9599015","US","NYC","PER","HTL","131 Wythe Ave, Brooklyn, NY 11249, USA","us_nyc-p_htl_b_high2","180","us_nyc-p_htl_b_high2_180"
"trial","survey","60","3367794","0.0-2.0-58.0","5f18ff404f90fe1473c2e3b6","625e209c10a247530e1c6964","625ef05a2eedf308db2b75b4","11","26524","","{""P0_Q0"":null,""ambiguous"":2,""objects"":1,""invisible"":2,""chaos"":1}","","","","","","","","","","","","","","","","","[]","Nearby location of Graduate Ann Arbor (us_arb_htl_a_high1)","ChIJYetfYhWuPIgRy9Fx8ebdnWE","42.2824654","-83.7429681","US","ARB","ARB","HTL","501 E Ann St, Ann Arbor, MI 48104, USA","us_arb_htl_b_high1","0","us_arb_htl_b_high1_0"
"trial","survey","61","3405869","0.0-2.0-59.0","5f18ff404f90fe1473c2e3b6","625e209c10a247530e1c6964","625ef05a2eedf308db2b75b4","11","38037","","{""P0_Q0"":null,""ambiguous"":2,""objects"":3,""invisible"":2,""chaos"":2}","","","","","","","","","","","","","","","","","[]","Torahime Post Office","ChIJAzu1m54oAmARzqXxALkD3FY","35.4195711","136.2622481","JP","TOR","TOR","POS","160-5 Gomura, Nagahama, Shiga 529-0141, Japan","jp_tor_pos_a_1","0","jp_tor_pos_a_1_0"
"trial","survey","62","3438656","0.0-2.0-60.0","5f18ff404f90fe1473c2e3b6","625e209c10a247530e1c6964","625ef05a2eedf308db2b75b4","11","32748","","{""P0_Q0"":null,""ambiguous"":1,""objects"":1,""invisible"":2,""chaos"":1}","","","","","","","","","","","","","","","","","[]","Nearby location of Tyler school (us_nyc-p_sch_a_3)","ChIJ_YUu76b0wokR2szNWwZJrq8","40.85244","-73.8576424","US","NYC","PER","SCH","1038 Neill Ave, Bronx, NY 10461, USA","us_nyc-p_sch_b_3","180","us_nyc-p_sch_b_3_180"
"trial","survey","63","3476723","0.0-2.0-61.0","5f18ff404f90fe1473c2e3b6","625e209c10a247530e1c6964","625ef05a2eedf308db2b75b4","11","38019","","{""P0_Q0"":null,""ambiguous"":5,""objects"":3,""invisible"":4,""chaos"":1}","","","","","","","","","","","","","","","","","[]","Oizumi Daini Elementary School","ChIJOT0Kk9nuGGARlr5-SQA1DDo","35.744542","139.573028","JP","TOK","PER","SCH","4-chōme-29-11 Minamiōizumi, Nerima City, Tokyo 178-0064, Japan","jp_tok-p_sch_a_6","270","jp_tok-p_sch_a_6_270"
"trial","survey","64","3513111","0.0-2.0-62.0","5f18ff404f90fe1473c2e3b6","625e209c10a247530e1c6964","625ef05a2eedf308db2b75b4","11","36341","","{""P0_Q0"":null,""ambiguous"":1,""objects"":2,""invisible"":1,""chaos"":1}","","","","","","","","","","","","","","","","","[]","須賀谷温泉","ChIJ_4AJx3YmAmARdbO9N7D3Ofo","35.454895","136.281751","JP","TOR","TOR","HTL","36 Sugatanichō, Nagahama, Shiga 526-0277, Japan","jp_tor_htl_a_high1","90","jp_tor_htl_a_high1_90"
"trial","survey","65","3536691","0.0-2.0-63.0","5f18ff404f90fe1473c2e3b6","625e209c10a247530e1c6964","625ef05a2eedf308db2b75b4","11","23537","","{""P0_Q0"":null,""ambiguous"":4,""objects"":1,""invisible"":1,""chaos"":1}","","","","","","","","","","","","","","","","","[]","MyStays Asakusa","HSTYOACG","35.70393","139.79741","JP","TOK","PER","HTL","1-21-11, HONJO, TOKYO 130-0004","jp_tok-p_htl_a_low1","90","jp_tok-p_htl_a_low1_90"
"trial","survey","66","3579120","0.0-2.0-64.0","5f18ff404f90fe1473c2e3b6","625e209c10a247530e1c6964","625ef05a2eedf308db2b75b4","11","42387","","{""P0_Q0"":null,""ambiguous"":4,""objects"":3,""invisible"":4,""chaos"":2}","","","","","","","","","","","","","","","","","[]","Nearby location of United States Postal Service (us_nyc-c_pos_a_3)","ChIJpWHPQID2wokRneXgmeORzP4","40.8291253","-73.9375732","US","NYC","CTR","POS","2925 Frederick Douglass Blvd, New York, NY 10039, USA","us_nyc-c_pos_b_3","270","us_nyc-c_pos_b_3_270"
"trial","survey","67","3615074","0.0-2.0-65.0","5f18ff404f90fe1473c2e3b6","625e209c10a247530e1c6964","625ef05a2eedf308db2b75b4","11","35904","","{""P0_Q0"":null,""ambiguous"":5,""objects"":4,""invisible"":3,""chaos"":4}","","","","","","","","","","","","","","","","","[]","Nearby location of HOTEL ALLAMANDA AOYAMA (jp_tok-c_htl_a_high1)","ChIJBeIIXpyMGGARp8F4yBa84pg","35.6704599","139.7189166","JP","TOK","CTR","HTL","2-chōme-22-14 Minamiaoyama, Minato City, Tokyo 107-0062, Japan","jp_tok-c_htl_b_high1","0","jp_tok-c_htl_b_high1_0"
"trial","survey","68","3668379","0.0-2.0-66.0","5f18ff404f90fe1473c2e3b6","625e209c10a247530e1c6964","625ef05a2eedf308db2b75b4","11","53258","","{""P0_Q0"":null,""ambiguous"":2,""objects"":3,""invisible"":3,""chaos"":2}","","","","","","","","","","","","","","","","","[]","Tyler school","ChIJt-5KfXv1wokRq4WnokUwQ44","40.8513114","-73.8564072","US","NYC","PER","SCH","1916 Hone Ave, Bronx, NY 10461, USA","us_nyc-p_sch_a_3","90","us_nyc-p_sch_a_3_90"
"trial","survey","69","3691531","0.0-2.0-67.0","5f18ff404f90fe1473c2e3b6","625e209c10a247530e1c6964","625ef05a2eedf308db2b75b4","11","23105","","{""P0_Q0"":null,""ambiguous"":3,""objects"":3,""invisible"":3,""chaos"":3}","","","","","","","","","","","","","","","","","[]","Nearby location of Multicultural Academy (us_arb_sch_a_3)","ChIJ-d4ve5SlPIgRkuG2a85xlZo","42.2058484","-83.701771","US","ARB","ARB","SCH","2866 Glen Creek Dr, Ann Arbor, MI 48108, USA","us_arb_sch_b_3","270","us_arb_sch_b_3_270"
"trial","survey","70","3734908","0.0-2.0-68.0","5f18ff404f90fe1473c2e3b6","625e209c10a247530e1c6964","625ef05a2eedf308db2b75b4","11","43335","","{""P0_Q0"":null,""ambiguous"":4,""objects"":2,""invisible"":3,""chaos"":2}","","","","","","","","","","","","","","","","","[]","United States Postal Service","ChIJbQAKGJ_0wokRvPFLNOncKdM","40.8535365","-73.8674033","US","NYC","PER","POS","2100 White Plains Rd FRNT 3, Bronx, NY 10462, USA","us_nyc-p_pos_a_5","270","us_nyc-p_pos_a_5_270"
"trial","survey","71","3769216","0.0-2.0-69.0","5f18ff404f90fe1473c2e3b6","625e209c10a247530e1c6964","625ef05a2eedf308db2b75b4","11","34254","","{""P0_Q0"":null,""ambiguous"":1,""objects"":3,""invisible"":2,""chaos"":4}","","","","","","","","","","","","","","","","","[]","Hotel JAL City Tokyo Toyosu","NKTYOHJC","35.68408","139.80885","JP","TOK","PER","HTL","6 4 20 TOYOSU KOTO KU, TOKYO 1350061","jp_tok-p_htl_a_mid1","90","jp_tok-p_htl_a_mid1_90"
"trial","survey","72","3810012","0.0-2.0-70.0","5f18ff404f90fe1473c2e3b6","625e209c10a247530e1c6964","625ef05a2eedf308db2b75b4","11","40732","","{""P0_Q0"":null,""ambiguous"":5,""objects"":3,""invisible"":4,""chaos"":2}","","","","","","","","","","","","","","","","","[]","Bell Tower Hotel","SCARB398","42.27929","-83.73974","US","ARB","ARB","HTL","300 S THAYER ST, ANN ARBOR, MI 48104","us_arb_htl_a_high2","0","us_arb_htl_a_high2_0"
"trial","survey","73","3823383","0.0-2.0-71.0","5f18ff404f90fe1473c2e3b6","625e209c10a247530e1c6964","625ef05a2eedf308db2b75b4","11","13327","","{""P0_Q0"":null,""ambiguous"":null,""objects"":null,""invisible"":null,""chaos"":null}","","","","","","","","","","","","","","","","","[]","United States Postal Service","ChIJHz5qxfxEwokRJQRRKHqw9JQ","40.6054665","-73.9794117","US","NYC","PER","POS","1714 W 6th St Ste 1, Brooklyn, NY 11223, USA","us_nyc-p_pos_a_6","180","us_nyc-p_pos_a_6_180"
"trial","survey","74","3862629","0.0-2.0-72.0","5f18ff404f90fe1473c2e3b6","625e209c10a247530e1c6964","625ef05a2eedf308db2b75b4","11","39207","","{""P0_Q0"":null,""ambiguous"":3,""objects"":2,""invisible"":3,""chaos"":3}","","","","","","","","","","","","","","","","","[]","Red Roof PLUS Ann Arbor-Univ North","RFARB045","42.30672","-83.69025","US","ARB","ARB","HTL","3621 PLYMOUTH ROAD, ANN ARBOR, MI 48105","us_arb_htl_a_low1","270","us_arb_htl_a_low1_270"
"trial","survey","75","3901720","0.0-2.0-73.0","5f18ff404f90fe1473c2e3b6","625e209c10a247530e1c6964","625ef05a2eedf308db2b75b4","11","39051","","{""P0_Q0"":null,""ambiguous"":3,""objects"":1,""invisible"":1,""chaos"":2}","","","","","","","","","","","","","","","","","[]","Success Academy Harlem 5","ChIJLXaSYHr2wokROx6Mq1FzC9A","40.820192","-73.9444568","US","NYC","CTR","SCH","301 W 140th St, New York, NY 10030, USA","us_nyc-c_sch_a_2","0","us_nyc-c_sch_a_2_0"
"trial","survey","76","3946683","0.0-2.0-74.0","5f18ff404f90fe1473c2e3b6","625e209c10a247530e1c6964","625ef05a2eedf308db2b75b4","11","44924","","{""P0_Q0"":null,""ambiguous"":3,""objects"":4,""invisible"":2,""chaos"":4}","","","","","","","","","","","","","","","","","[]","Nearby location of The Westin Tokyo (jp_tok-p_htl_a_high2)","ChIJrVZsu8CLGGARMYSk3wOv6Fk","35.6401336","139.7167882","JP","TOK","PER","HTL","Japan, 〒141-0021 Tokyo, Shinagawa City, Kamiōsaki, 2-chōme−3−３０ イトーピア長者丸ＩＤＥＡ","jp_tok-p_htl_b_high2","270","jp_tok-p_htl_b_high2_270"
"trial","survey","77","3996440","0.0-2.0-75.0","5f18ff404f90fe1473c2e3b6","625e209c10a247530e1c6964","625ef05a2eedf308db2b75b4","11","49713","","{""P0_Q0"":null,""ambiguous"":5,""objects"":5,""invisible"":5,""chaos"":3}","","","","","","","","","","","","","","","","","[]","Nearby location of Hotel Route-Inn Nagahama Inter (us_chl_htl_a_low1)","ChIJ64OtwtAuAmARNDquDmxOjLw","35.3955527","136.2935564","JP","TOR","TOR","HTL","66 Yamashinachō, Nagahama, Shiga 526-0847, Japan","jp_tor_htl_b_low1","270","jp_tor_htl_b_low1_270"
"trial","survey","78","4029680","0.0-2.0-76.0","5f18ff404f90fe1473c2e3b6","625e209c10a247530e1c6964","625ef05a2eedf308db2b75b4","11","33197","","{""P0_Q0"":null,""ambiguous"":5,""objects"":null,""invisible"":3,""chaos"":3}","","","","","","","","","","","","","","","","","[]","Daiwa Roynet Hotel Tokyo-Osaki","HSTYOAIZ","35.61815","139.72674","JP","TOK","PER","HTL","2-1-3, OSAKI, TOKYO 141-0032","jp_tok-p_htl_a_low2","0","jp_tok-p_htl_a_low2_0"
"demographics","survey-html-form","79","4042924","0.0-2.0-77.0","5f18ff404f90fe1473c2e3b6","625e209c10a247530e1c6964","625ef05a2eedf308db2b75b4","11","13204","","{""age"":""48"",""gender"":""female"",""gender-self-describe"":"""",""zipcode"":""23150""}","","","","","","","","","","","","","","","","","","","","","","","","","","","","",""
"demographics","survey","80","4050532","0.0-2.0-78.0","5f18ff404f90fe1473c2e3b6","625e209c10a247530e1c6964","625ef05a2eedf308db2b75b4","11","7532","","{""P0_Q0"":null,""outsideUS"":""No"",""outsideUS_years"":""""}","","","","","","","","","","","","","","","","","[]","","","","","","","","","","","",""
"end-survey","survey-text","81","4072027","0.0-2.0-79.0","5f18ff404f90fe1473c2e3b6","625e209c10a247530e1c6964","625ef05a2eedf308db2b75b4","11","21328","","{""Q0"":""""}","","","","","","","","","","","","","","","","","","","","","","","","","","","","",""
