"task","trial_type","trial_index","time_elapsed","internal_node_id","subject_id","study_id","session_id","group","rt","stimulus","response","width","height","webaudio","browser","browser_version","mobile","os","fullscreen","vsync_rate","webcam","microphone","success","timeout","failed_images","failed_audio","failed_video","accuracy","name","place_id","lat","lng","culture","loc1","loc2","loct","address","loc_id_prev","angle","loc_id"
"pavlovia-init","pavlovia","0","2671","0.0-0.0","610882926b500e6b59e8d5c4","626166b218b78fee4e9d8d4d","626175f035c80c21afae4941","15","","","","","","","","","","","","","","","","","","","","","","","","","","","","","","","",""
"consent","html-button-response","1","40230","0.0-1.0","610882926b500e6b59e8d5c4","626166b218b78fee4e9d8d4d","626175f035c80c21afae4941","15","37557","
        <div style=""font-size: 80%; max-width:700px"">
            <h2>Informed Consent</h2><br>
        
            <div style=""text-align: left"">
            <h3>Streetscape Perceptions</h3>
            <b>HUM00189138</b>
            <br><hr>
        
            <h4>DESCRIPTION</h4>
            <p>
                In this study, you will view Google Street View images. You will then answer questions about your impressions of the streetscapes presented in those images.
            </p><br>
        
            <h4>TIME INVOLVEMENT</h4>
            <p>Your participation will take approximately 30 minutes.</p><br>
        
            <h4>RISKS AND BENEFITS</h4>
            <p>
                The risks associated with this study are minimal. The benefits which may reasonably be expected to result from this study are none.  We cannot and do not guarantee or promise that you will receive any benefits from this study. 
            </p><br>
        
            <h4>PAYMENTS</h4>
            <p>You will be paid <b>$5.00</b> for your participation.</p><br>
        
            <h4>SUBJECT'S RIGHTS</h4>
            <p>
                If you have read this form and have decided to participate in this project, please understand your participation is voluntary and you have the right to withdraw your consent or discontinue participation at any time without penalty or loss of benefits to which you are otherwise entitled.  The alternative is not to participate.  You have the right to refuse to answer particular questions.  
            </p>
        
            <p>
                Your individual privacy will be maintained in all published and written data resulting from the study. Your responses will be kept confidential: you are given a participant code, and no one, not even the research team, can match that code with your identity. Your collected information may also be shared with other researchers as part of our dataset.
            </p><br>
        
            <h4>CONTACT INFORMATION</h4>
            <p>
                Questions: If you have any questions, concerns or complaints about this research, its procedures, risks and benefits, contact the Protocol Director, Nicholas Camp, npcamp@umich.edu, (443) 851-6783.
            </p>
        
            <p>
                If you have questions about your rights as a research participant, or wish to obtain information, ask questions or discuss any concerns about this study with someone other than the researcher(s), please contact the following:
                <br><br>
        
                University of Michigan<br>
                Health Sciences and Behavioral Sciences Institutional Review Board
                (IRB-HSBS)<br>
                2800 Plymouth Road <br>
                Building 520, Room 1169 <br>
                Ann Arbor, MI 48109-2800 <br>
                Telephone: 734-936-0933 or toll free (866) 936-0933 <br>
                Fax: 734-936-1852 <br />
                E-mail: irbhsbs@umich.edu <br>
            </p>
        
            <p>
                You can also contact the University of Michigan Compliance Hotline at 1-866-990-0111. You may also print this consent form to keep.
            </p>
            <br>
        
            <div class=""alert alert-warning""><b>
                Do you consent to participate in this study? If you consent to participate in this study, please click “Accept and continue.”
            </b></div>
            </div>
        </div>
    ","1","","","","","","","","","","","","","","","","","","","","","","","","","","","","",""
"browser-check","browser-check","2","41228","0.0-2.0-0.0","610882926b500e6b59e8d5c4","626166b218b78fee4e9d8d4d","626175f035c80c21afae4941","15","","","","980","1690","true","ios","15.4.0","true","iOS","false","60.91","true","true","","","","","","","","","","","","","","","","","",""
"","preload","3","42462","0.0-2.0-1.0","610882926b500e6b59e8d5c4","626166b218b78fee4e9d8d4d","626175f035c80c21afae4941","15","","","","","","","","","","","","","","","true","false","[]","[]","[]","","","","","","","","","","","","",""
"instructions","html-button-response","4","74114","0.0-2.0-2.0","610882926b500e6b59e8d5c4","626166b218b78fee4e9d8d4d","626175f035c80c21afae4941","15","31651","
        <div class=""text-container"">
            <h1>Welcome to the study!</h1>
            
            <div class=""text-left"">
                <p>
                    In this study, we are interested in how people think about different Google Street View images. Google Street View takes pictures of streets used for Google Earth and Google Maps. You’ll see Google Street View images of different places and answer some questions about each one.
                </p>
            </div>
            
            <img src='
            https://maps.googleapis.com/maps/api/streetview?size=640x320
            &location=37.783631,-122.432766
            &heading=80
            &pitch=2
            &fov=100
            &radius=150
            &key=AIzaSyC2OxRDg6qlzZDj7j0UAD2XyE0qWokLvvs
            &source=outdoor'>
        
            <br>
        <br>
    ","0","","","","","","","","","","","","","","","","","","","","","","","","","","","","",""
"instructions","html-button-response","5","100393","0.0-2.0-3.0","610882926b500e6b59e8d5c4","626166b218b78fee4e9d8d4d","626175f035c80c21afae4941","15","25974","
        <style>
            img.small {
            max-width: 100px;
            }
            li {
            text-indent: 40px;
            }
        </style>

        <div class=""text-container text-left"">
            <p>For each picture, we’d like your impressions of the scene:</p>
            
            <hr>
                Are there <b>clear, distinct boundaries</b> between objects in the scene, or are the <b>boundaries ambiguous or unclear</b>?
                
                <li>clear, distinct boundaries: <img class=""small"" src=""assets/img/ambiguous-low.png""></li>
                <li>ambiguous or unclear boundaries: <img class=""small"" src=""assets/img/ambiguous-high.png""></li>
            <hr>
            <br>
                Are there <b>only a few different objects</b> in the scene, or is there <b>a large number</b>?
            <br><br>
            <hr>
                Are only <b>a few parts</b> of the scene <b>invisible or obscured</b>, or are <b>many parts invisible or obscured</b>?
                
                <li>a few parts invisible or obscured: <img class=""small"" src=""assets/img/invisible-low.png""></li>
                <li>many parts invisible or obscured: <img class=""small"" src=""assets/img/invisible-high.png""></li>
            <hr>
            <br>
                Does the scene look <b>organized</b> or <b>chaotic</b> to you?
            <br><br>
            <hr>
            
            <p>
                There are no right or wrong answers: we are interested in <b>your</b> impression. Note that some images might have individual buildings or faces blurred for privacy. Please ignore these when making your judgments.
            </p>
        </div>
        <br>
    ","0","","","","","","","","","","","","","","","","","","","","","","","","","","","","",""
"instructions","html-button-response","6","106160","0.0-2.0-4.0","610882926b500e6b59e8d5c4","626166b218b78fee4e9d8d4d","626175f035c80c21afae4941","15","5761","
        <div class=""text-container text-left"">
            <p>Please make sure you are doing this study in an area where you can focus and complete the survey in one sitting.</p>

            <p>Don’t spend too much time on any one picture, and, again go with your gut impression!</p>
            
            <p>The study should take about 30 minutes. We’ll let you know when you’re halfway through.</p>
        </div>
            
        <h3>Ready? Click next to get started!</h3>
        <br>
    ","0","","","","","","","","","","","","","","","","","","","","","","","","","","","","",""
"trial","survey","7","139206","0.0-2.0-5.0","610882926b500e6b59e8d5c4","626166b218b78fee4e9d8d4d","626175f035c80c21afae4941","15","32956","","{""P0_Q0"":null,""ambiguous"":2,""objects"":5,""invisible"":2,""chaos"":2}","","","","","","","","","","","","","","","","","[]","Nearby location of Flexstay Inn Shinagawa (jp_tok-p_htl_a_mid2)","ChIJd27F2VyKGGARc1F75nZNGYI","35.6235067","139.7415021","JP","TOK","PER","HTL","1-chōme-8-19 Kitashinagawa, Shinagawa City, Tokyo 140-0001, Japan","jp_tok-p_htl_b_mid2","0","jp_tok-p_htl_b_mid2_0"
"trial","survey","8","168918","0.0-2.0-6.0","610882926b500e6b59e8d5c4","626166b218b78fee4e9d8d4d","626175f035c80c21afae4941","15","29692","","{""P0_Q0"":null,""ambiguous"":1,""objects"":4,""invisible"":1,""chaos"":1}","","","","","","","","","","","","","","","","","[]","Torahime Post Office","ChIJAzu1m54oAmARzqXxALkD3FY","35.4195711","136.2622481","JP","TOR","TOR","POS","160-5 Gomura, Nagahama, Shiga 529-0141, Japan","jp_tor_pos_a_1","0","jp_tor_pos_a_1_0"
"trial","survey","9","193133","0.0-2.0-7.0","610882926b500e6b59e8d5c4","626166b218b78fee4e9d8d4d","626175f035c80c21afae4941","15","24191","","{""P0_Q0"":null,""ambiguous"":2,""objects"":5,""invisible"":4,""chaos"":4}","","","","","","","","","","","","","","","","","[]","Setagaya Okamoto Post Office","ChIJU6mt5gf0GGARS1eqIkjSKT4","35.6261891","139.6194159","JP","TOK","PER","POS","1-chōme-30-7 Okamoto, Setagaya City, Tokyo 157-0076, Japan","jp_tok-p_pos_a_1","180","jp_tok-p_pos_a_1_180"
"trial","survey","10","212203","0.0-2.0-8.0","610882926b500e6b59e8d5c4","626166b218b78fee4e9d8d4d","626175f035c80c21afae4941","15","19045","","{""P0_Q0"":null,""ambiguous"":1,""objects"":4,""invisible"":1,""chaos"":1}","","","","","","","","","","","","","","","","","[]","Nearby location of The Ritz-Carlton Tokyo (jp_tok-c_htl_a_ultra2)","ChIJdZpNkoKLGGARPstgSDOpX5o","35.6651495","139.7330667","JP","TOK","CTR","HTL","4-chōme-3-24 Roppongi, Minato City, Tokyo 106-0032, Japan","jp_tok-c_htl_b_ultra2","0","jp_tok-c_htl_b_ultra2_0"
"trial","survey","11","228330","0.0-2.0-9.0","610882926b500e6b59e8d5c4","626166b218b78fee4e9d8d4d","626175f035c80c21afae4941","15","16106","","{""P0_Q0"":null,""ambiguous"":5,""objects"":5,""invisible"":4,""chaos"":4}","","","","","","","","","","","","","","","","","[]","United States Postal Service","ChIJj65Q2Jz2wokR_LoJ8_MV6lI","40.8386238","-73.9389823","US","NYC","CTR","POS","511 W 165th St, New York, NY 10032, USA","us_nyc-c_pos_a_4","90","us_nyc-c_pos_a_4_90"
"trial","survey","12","247735","0.0-2.0-10.0","610882926b500e6b59e8d5c4","626166b218b78fee4e9d8d4d","626175f035c80c21afae4941","15","19381","","{""P0_Q0"":null,""ambiguous"":2,""objects"":2,""invisible"":3,""chaos"":2}","","","","","","","","","","","","","","","","","[]","Nearby location of INTERCONTINENTAL THE STRINGS (jp_tok-c_htl_a_mid2)","ChIJAb1kM0WKGGARue_1-lZ6ilo","35.6290559","139.7422638","JP","TOK","CTR","HTL","2-chōme-2-2-14 Kōnan, Minato City, Tokyo 108-0075, Japan","jp_tok-c_htl_b_mid2","180","jp_tok-c_htl_b_mid2_180"
"trial","survey","13","267116","0.0-2.0-11.0","610882926b500e6b59e8d5c4","626166b218b78fee4e9d8d4d","626175f035c80c21afae4941","15","19359","","{""P0_Q0"":null,""ambiguous"":1,""objects"":3,""invisible"":1,""chaos"":1}","","","","","","","","","","","","","","","","","[]","USPS Bayside Carrier Annex","ChIJKfnG5OFhwokRDpTOYU_3G4g","40.7633707","-73.7662444","US","NYC","PER","POS","41-29 216th St, Bayside, NY 11361, USA","us_nyc-p_pos_a_1","180","us_nyc-p_pos_a_1_180"
"trial","survey","14","282140","0.0-2.0-12.0","610882926b500e6b59e8d5c4","626166b218b78fee4e9d8d4d","626175f035c80c21afae4941","15","15002","","{""P0_Q0"":null,""ambiguous"":5,""objects"":4,""invisible"":5,""chaos"":4}","","","","","","","","","","","","","","","","","[]","Nearby location of United States Postal Service (us_nyc-p_pos_a_5)","ChIJAxFT_p70wokRYeihFIw0wFU","40.8546215","-73.8685765","US","NYC","PER","POS","625 Lydig Ave, Bronx, NY 10462, USA","us_nyc-p_pos_b_5","90","us_nyc-p_pos_b_5_90"
"trial","survey","15","306765","0.0-2.0-13.0","610882926b500e6b59e8d5c4","626166b218b78fee4e9d8d4d","626175f035c80c21afae4941","15","24598","","{""P0_Q0"":null,""ambiguous"":2,""objects"":2,""invisible"":5,""chaos"":2}","","","","","","","","","","","","","","","","","[]","Sandy Hook CenTer","ChIJdzryqpZZwokRskdUpqxDvaI","40.7330008","-74.0005218","US","NYC","CTR","SCH","136 Waverly Pl, New York, NY 10014, USA","us_nyc-c_sch_a_4","180","us_nyc-c_sch_a_4_180"
"trial","survey","16","319393","0.0-2.0-14.0","610882926b500e6b59e8d5c4","626166b218b78fee4e9d8d4d","626175f035c80c21afae4941","15","12609","","{""P0_Q0"":null,""ambiguous"":2,""objects"":3,""invisible"":3,""chaos"":1}","","","","","","","","","","","","","","","","","[]","Nearby location of USPS Bayside Carrier Annex (us_nyc-p_pos_a_1)","ChIJj8ldGeJhwokRyuFg0UTPpzA","40.762488","-73.7649895","US","NYC","PER","POS","217-03 43rd Ave, Queens, NY 11361, USA","us_nyc-p_pos_b_1","90","us_nyc-p_pos_b_1_90"
"trial","survey","17","333992","0.0-2.0-15.0","610882926b500e6b59e8d5c4","626166b218b78fee4e9d8d4d","626175f035c80c21afae4941","15","14584","","{""P0_Q0"":null,""ambiguous"":2,""objects"":5,""invisible"":4,""chaos"":3}","","","","","","","","","","","","","","","","","[]","Nearby location of Tyler school (us_nyc-p_sch_a_3)","ChIJ_YUu76b0wokR2szNWwZJrq8","40.85244","-73.8576424","US","NYC","PER","SCH","1038 Neill Ave, Bronx, NY 10461, USA","us_nyc-p_sch_b_3","270","us_nyc-p_sch_b_3_270"
"trial","survey","18","347809","0.0-2.0-16.0","610882926b500e6b59e8d5c4","626166b218b78fee4e9d8d4d","626175f035c80c21afae4941","15","13798","","{""P0_Q0"":null,""ambiguous"":1,""objects"":2,""invisible"":1,""chaos"":1}","","","","","","","","","","","","","","","","","[]","Ōmori Bellport Post Office","ChIJFXY_sTJgGGARZtQCo-Qdz_M","35.5888587","139.7314559","JP","HIK","HIK","POS","6-chōme-26-3 Minamiōi, Shinagawa City, Tokyo 140-0013, Japan","jp_hik_pos_a_2","0","jp_hik_pos_a_2_0"
"trial","survey","19","364925","0.0-2.0-17.0","610882926b500e6b59e8d5c4","626166b218b78fee4e9d8d4d","626175f035c80c21afae4941","15","17096","","{""P0_Q0"":null,""ambiguous"":2,""objects"":5,""invisible"":1,""chaos"":1}","","","","","","","","","","","","","","","","","[]","Kasai Station Post Office","ChIJY2FCCu2HGGARFTMPVij0n94","35.6656728","139.8727342","JP","HIK","HIK","POS","3-chōme-29-19 Nakakasai, Edogawa City, Tokyo 134-0083, Japan","jp_hik_pos_a_1","270","jp_hik_pos_a_1_270"
"trial","survey","20","383592","0.0-2.0-18.0","610882926b500e6b59e8d5c4","626166b218b78fee4e9d8d4d","626175f035c80c21afae4941","15","18643","","{""P0_Q0"":null,""ambiguous"":4,""objects"":3,""invisible"":5,""chaos"":3}","","","","","","","","","","","","","","","","","[]","Nearby location of The Westin Tokyo (jp_tok-p_htl_a_high2)","ChIJrVZsu8CLGGARMYSk3wOv6Fk","35.6401336","139.7167882","JP","TOK","PER","HTL","Japan, 〒141-0021 Tokyo, Shinagawa City, Kamiōsaki, 2-chōme−3−３０ イトーピア長者丸ＩＤＥＡ","jp_tok-p_htl_b_high2","270","jp_tok-p_htl_b_high2_270"
"trial","survey","21","394595","0.0-2.0-19.0","610882926b500e6b59e8d5c4","626166b218b78fee4e9d8d4d","626175f035c80c21afae4941","15","10984","","{""P0_Q0"":null,""ambiguous"":1,""objects"":3,""invisible"":1,""chaos"":1}","","","","","","","","","","","","","","","","","[]","Nearby location of United States Postal Service (us_nyc-p_pos_a_5)","ChIJAxFT_p70wokRYeihFIw0wFU","40.8546215","-73.8685765","US","NYC","PER","POS","625 Lydig Ave, Bronx, NY 10462, USA","us_nyc-p_pos_b_5","0","us_nyc-p_pos_b_5_0"
"trial","survey","22","405095","0.0-2.0-20.0","610882926b500e6b59e8d5c4","626166b218b78fee4e9d8d4d","626175f035c80c21afae4941","15","10485","","{""P0_Q0"":null,""ambiguous"":1,""objects"":1,""invisible"":2,""chaos"":1}","","","","","","","","","","","","","","","","","[]","Nearby location of Nagahama Shiritsu Torahime Elementary School (jp_tor_sch_a_1)","ChIJfT7yNZ8oAmAROTHUpaMv9Ak","35.419735","136.265362","JP","TOR","TOR","SCH","2410 Miyabechō, Nagahama, Shiga 529-0112, Japan","jp_tor_sch_b_1","90","jp_tor_sch_b_1_90"
"trial","survey","23","419466","0.0-2.0-21.0","610882926b500e6b59e8d5c4","626166b218b78fee4e9d8d4d","626175f035c80c21afae4941","15","14351","","{""P0_Q0"":null,""ambiguous"":1,""objects"":4,""invisible"":1,""chaos"":1}","","","","","","","","","","","","","","","","","[]","Nearby location of United States Postal Service (us_nyc-p_pos_a_6)","ChIJ3R3ukfxEwokRG8NgRpaxZSY","40.6042186","-73.9781935","US","NYC","PER","POS","1776 W 5th St, Brooklyn, NY 11223, USA","us_nyc-p_pos_b_6","270","us_nyc-p_pos_b_6_270"
"trial","survey","24","428543","0.0-2.0-22.0","610882926b500e6b59e8d5c4","626166b218b78fee4e9d8d4d","626175f035c80c21afae4941","15","9056","","{""P0_Q0"":null,""ambiguous"":1,""objects"":1,""invisible"":1,""chaos"":1}","","","","","","","","","","","","","","","","","[]","Quality Inn and Suites Ann Arbor Hwy 23","QIARB356","42.25224","-83.68168","US","ARB","ARB","HTL","2376 CARPENTER ROAD, ANN ARBOR, MI 48018","us_arb_htl_a_mid2","270","us_arb_htl_a_mid2_270"
"trial","survey","25","434246","0.0-2.0-23.0","610882926b500e6b59e8d5c4","626166b218b78fee4e9d8d4d","626175f035c80c21afae4941","15","5678","","{""P0_Q0"":null,""ambiguous"":1,""objects"":2,""invisible"":1,""chaos"":1}","","","","","","","","","","","","","","","","","[]","Ann Arbor Hills Child Development Center","ChIJe87tMeKuPIgRVFWuWyeOdBY","42.2629596","-83.7044284","US","ARB","ARB","SCH","2775 Bedford Rd, Ann Arbor, MI 48104, USA","us_arb_sch_a_1","270","us_arb_sch_a_1_270"
"trial","survey","26","449460","0.0-2.0-24.0","610882926b500e6b59e8d5c4","626166b218b78fee4e9d8d4d","626175f035c80c21afae4941","15","15195","","{""P0_Q0"":null,""ambiguous"":3,""objects"":2,""invisible"":4,""chaos"":3}","","","","","","","","","","","","","","","","","[]","Nearby location of Kasai Station Post Office (jp_hik_pos_a_1)","ChIJJ6kVju2HGGAR5jpVAdpfozs","35.6644139","139.8716517","JP","HIK","HIK","POS","3-chōme-33-14 Nakakasai, Edogawa City, Tokyo 134-0083, Japan","jp_hik_pos_b_1","0","jp_hik_pos_b_1_0"
"trial","survey","27","465614","0.0-2.0-25.0","610882926b500e6b59e8d5c4","626166b218b78fee4e9d8d4d","626175f035c80c21afae4941","15","16138","","{""P0_Q0"":null,""ambiguous"":3,""objects"":3,""invisible"":4,""chaos"":4}","","","","","","","","","","","","","","","","","[]","Nearby location of Kotō 3rd Elementary School (jp_hik_sch_a_3)","ChIJLZ0mLuzXA2ARkBmZe7KxZ-s","35.1317714","136.2240495","JP","HIK","HIK","SCH","2191-2 Kotakarichō, Higashiomi, Shiga 527-0125, Japan","jp_hik_sch_b_3","180","jp_hik_sch_b_3_180"
"trial","survey","28","482969","0.0-2.0-26.0","610882926b500e6b59e8d5c4","626166b218b78fee4e9d8d4d","626175f035c80c21afae4941","15","17334","","{""P0_Q0"":null,""ambiguous"":1,""objects"":1,""invisible"":2,""chaos"":2}","","","","","","","","","","","","","","","","","[]","びわ湖畔リゾート 白浜荘","ChIJIeJgVfibAWAR-Jd7lsdIM-M","35.3054063","136.0367666","JP","HIK","HIK","HTL","2300-1 Adogawachō Shimoogawa, Takashima, Shiga 520-1223, Japan","jp_hik_htl_a_mid2","180","jp_hik_htl_a_mid2_180"
"trial","survey","29","496186","0.0-2.0-27.0","610882926b500e6b59e8d5c4","626166b218b78fee4e9d8d4d","626175f035c80c21afae4941","15","13198","","{""P0_Q0"":null,""ambiguous"":4,""objects"":1,""invisible"":3,""chaos"":3}","","","","","","","","","","","","","","","","","[]","Nearby location of United States Postal Service (us_nyc-c_pos_a_1)","ChIJb5p6MRP2wokR4nQvWgRky_4","40.8100051","-73.9519042","US","NYC","CTR","POS","2311 Frederick Douglass Blvd, New York, NY 10027, USA","us_nyc-c_pos_b_1","0","us_nyc-c_pos_b_1_0"
"trial","survey","30","509204","0.0-2.0-28.0","610882926b500e6b59e8d5c4","626166b218b78fee4e9d8d4d","626175f035c80c21afae4941","15","12994","","{""P0_Q0"":null,""ambiguous"":5,""objects"":1,""invisible"":5,""chaos"":4}","","","","","","","","","","","","","","","","","[]","Mitsui Garden Kyobashi Tokyo","UITYOMGK","35.67906","139.77122","JP","TOK","CTR","HTL","1-3-6, KYOBASHI, CHUO-KU, TOKYO 1040031","jp_tok-c_htl_a_low2","180","jp_tok-c_htl_a_low2_180"
"trial","survey","31","522578","0.0-2.0-29.0","610882926b500e6b59e8d5c4","626166b218b78fee4e9d8d4d","626175f035c80c21afae4941","15","13355","","{""P0_Q0"":null,""ambiguous"":1,""objects"":1,""invisible"":1,""chaos"":1}","","","","","","","","","","","","","","","","","[]","Nearby location of Torahime Post Office (jp_tor_pos_a_1)","ChIJgxpx9J4oAmARIkc4T1H6KS0","35.420504","136.263204","JP","TOR","TOR","POS","171-3 Gomura, Nagahama, Shiga 529-0141, Japan","jp_tor_pos_b_1","180","jp_tor_pos_b_1_180"
"trial","survey","32","534195","0.0-2.0-30.0","610882926b500e6b59e8d5c4","626166b218b78fee4e9d8d4d","626175f035c80c21afae4941","15","11603","","{""P0_Q0"":null,""ambiguous"":3,""objects"":3,""invisible"":1,""chaos"":1}","","","","","","","","","","","","","","","","","[]","United States Postal Service","ChIJt9iTcDz2wokR8BrJr4TbjWQ","40.8049683","-73.9649034","US","NYC","CTR","POS","534 W 112th St, New York, NY 10025, USA","us_nyc-c_pos_a_2","0","us_nyc-c_pos_a_2_0"
"trial","survey","33","543629","0.0-2.0-31.0","610882926b500e6b59e8d5c4","626166b218b78fee4e9d8d4d","626175f035c80c21afae4941","15","9396","","{""P0_Q0"":null,""ambiguous"":2,""objects"":2,""invisible"":3,""chaos"":2}","","","","","","","","","","","","","","","","","[]","Best Western Plus Arena Hotel","BWJFK142","40.67815","-73.94879","US","NYC","PER","HTL","1324 ATLANTIC AVENUE, BROOKLYN, NY 11216","us_nyc-p_htl_a_low1","270","us_nyc-p_htl_a_low1_270"
"trial","survey","34","551224","0.0-2.0-32.0","610882926b500e6b59e8d5c4","626166b218b78fee4e9d8d4d","626175f035c80c21afae4941","15","7575","","{""P0_Q0"":null,""ambiguous"":3,""objects"":1,""invisible"":1,""chaos"":1}","","","","","","","","","","","","","","","","","[]","Nearby location of Sandy Hook CenTer (us_nyc-c_sch_a_4)","ChIJVVVgOJFZwokRN9n4QjPq_Dc","40.731952","-73.999183","US","NYC","CTR","SCH","31 Washington Square W, New York, NY 10011, USA","us_nyc-c_sch_b_4","0","us_nyc-c_sch_b_4_0"
"trial","survey","35","560333","0.0-2.0-33.0","610882926b500e6b59e8d5c4","626166b218b78fee4e9d8d4d","626175f035c80c21afae4941","15","9095","","{""P0_Q0"":null,""ambiguous"":1,""objects"":1,""invisible"":1,""chaos"":1}","","","","","","","","","","","","","","","","","[]","Nearby location of Baymont by Wyndham Chelsea (us_chl_htl_a_mid1)","ChIJPR5PbrjOPIgRniUqQCWoPWs","42.298341","-84.0291029","US","CHL","CHL","HTL","1620 Commerce Park Dr suite 100, Chelsea, MI 48118, USA","us_chl_htl_b_mid1","90","us_chl_htl_b_mid1_90"
"trial","survey","36","566569","0.0-2.0-34.0","610882926b500e6b59e8d5c4","626166b218b78fee4e9d8d4d","626175f035c80c21afae4941","15","6211","","{""P0_Q0"":null,""ambiguous"":1,""objects"":2,""invisible"":2,""chaos"":1}","","","","","","","","","","","","","","","","","[]","United States Postal Service","ChIJRxSbQ7LOPIgRxY-tEHFOePE","42.3058978","-84.0197951","US","CHL","CHL","POS","1101 S Main St Ste 100, Chelsea, MI 48118, USA","us_chl_pos_a_1","0","us_chl_pos_a_1_0"
"half-way","html-button-response","37","582324","0.0-2.0-35.0","610882926b500e6b59e8d5c4","626166b218b78fee4e9d8d4d","626175f035c80c21afae4941","15","null","
            <h3>You are now half way through the study.</h3>
            <p>Please take a quick, 15-second break before you continue.</p>
            <img src='assets/img/countdown-15.gif'>
            <p>The study will automatically advance forward after the countdown is complete. However, you may click ""Next"" to advance forward now if you wish.</p>
        ","null","","","","","","","","","","","","","","","","","","","","","","","","","","","","",""
"attention-check","survey","38","598852","0.0-2.0-36.0","610882926b500e6b59e8d5c4","626166b218b78fee4e9d8d4d","626175f035c80c21afae4941","15","16489","","{""P0_Q0"":null,""ambiguous"":null,""objects"":null,""invisible"":null,""chaos"":null}","","","","","","","","","","","","","","","","","[]","","","","","","","","","","","",""
"trial","survey","39","644178","0.0-2.0-37.0","610882926b500e6b59e8d5c4","626166b218b78fee4e9d8d4d","626175f035c80c21afae4941","15","45312","","{""P0_Q0"":null,""ambiguous"":1,""objects"":1,""invisible"":2,""chaos"":1}","","","","","","","","","","","","","","","","","[]","Katsushika City Iizuka Elementary School","ChIJXWuTk2CFGGARG2Rud6f0E18","35.7767025","139.8582864","JP","TOK","PER","SCH","1-chōme-13-1 Minamimizumoto, Katsushika City, Tokyo 125-0035, Japan","jp_tok-p_sch_a_3","180","jp_tok-p_sch_a_3_180"
"trial","survey","40","659321","0.0-2.0-38.0","610882926b500e6b59e8d5c4","626166b218b78fee4e9d8d4d","626175f035c80c21afae4941","15","15119","","{""P0_Q0"":null,""ambiguous"":3,""objects"":2,""invisible"":3,""chaos"":2}","","","","","","","","","","","","","","","","","[]","Nearby location of Aman Tokyo (jp_tok-c_htl_a_ultra1)","ChIJ5W6CKziLGGAR73lO8PA1mRk","35.6844083","139.7640849","JP","TOK","CTR","HTL","1-chōme-3-4 Marunouchi, Chiyoda City, Tokyo 100-0005, Japan","jp_tok-c_htl_b_ultra1","0","jp_tok-c_htl_b_ultra1_0"
"trial","survey","41","670818","0.0-2.0-39.0","610882926b500e6b59e8d5c4","626166b218b78fee4e9d8d4d","626175f035c80c21afae4941","15","11474","","{""P0_Q0"":null,""ambiguous"":1,""objects"":2,""invisible"":1,""chaos"":1}","","","","","","","","","","","","","","","","","[]","Bronx Charter School for Excellence 3","ChIJg2kj5avzwokRaKO_rPdPfu8","40.8883786","-73.8632703","US","NYC","PER","SCH","3956 Carpenter Ave, Bronx, NY 10466, USA","us_nyc-p_sch_a_6","270","us_nyc-p_sch_a_6_270"
"trial","survey","42","678009","0.0-2.0-40.0","610882926b500e6b59e8d5c4","626166b218b78fee4e9d8d4d","626175f035c80c21afae4941","15","7175","","{""P0_Q0"":null,""ambiguous"":1,""objects"":1,""invisible"":1,""chaos"":1}","","","","","","","","","","","","","","","","","[]","United States Postal Service","ChIJRxSbQ7LOPIgRxY-tEHFOePE","42.3058978","-84.0197951","US","CHL","CHL","POS","1101 S Main St Ste 100, Chelsea, MI 48118, USA","us_chl_pos_a_1","270","us_chl_pos_a_1_270"
"trial","survey","43","689785","0.0-2.0-41.0","610882926b500e6b59e8d5c4","626166b218b78fee4e9d8d4d","626175f035c80c21afae4941","15","11761","","{""P0_Q0"":null,""ambiguous"":4,""objects"":4,""invisible"":4,""chaos"":5}","","","","","","","","","","","","","","","","","[]","Kakezuka Elementary School","ChIJLYvCVhSLGGARQZ0PUiBKWkg","35.6443992","139.714528","JP","TOK","CTR","SCH","4-chōme-21-10 Ebisu, Shibuya City, Tokyo 150-0013, Japan","jp_tok-c_sch_a_4","0","jp_tok-c_sch_a_4_0"
"trial","survey","44","701620","0.0-2.0-42.0","610882926b500e6b59e8d5c4","626166b218b78fee4e9d8d4d","626175f035c80c21afae4941","15","11810","","{""P0_Q0"":null,""ambiguous"":4,""objects"":3,""invisible"":3,""chaos"":2}","","","","","","","","","","","","","","","","","[]","Bunkyo Otsuka 3 Post Office","ChIJ2xa06qWNGGARyOBmGzqDPvY","35.7218144","139.7382888","JP","TOK","CTR","POS","3-chōme-39-7 Ōtsuka, Bunkyo City, Tokyo 112-0012, Japan","jp_tok-c_pos_a_7","270","jp_tok-c_pos_a_7_270"
"trial","survey","45","711147","0.0-2.0-43.0","610882926b500e6b59e8d5c4","626166b218b78fee4e9d8d4d","626175f035c80c21afae4941","15","9508","","{""P0_Q0"":null,""ambiguous"":2,""objects"":1,""invisible"":2,""chaos"":2}","","","","","","","","","","","","","","","","","[]","Nearby location of United States Postal Service (us_nyc-p_pos_a_2)","ChIJLSVr_e-JwokR4naG8qzZU4M","40.769638","-73.735929","US","NYC","PER","POS","252-02 Northern Blvd, Flushing, NY 11362, USA","us_nyc-p_pos_b_2","90","us_nyc-p_pos_b_2_90"
"trial","survey","46","724466","0.0-2.0-44.0","610882926b500e6b59e8d5c4","626166b218b78fee4e9d8d4d","626175f035c80c21afae4941","15","13304","","{""P0_Q0"":null,""ambiguous"":4,""objects"":3,""invisible"":3,""chaos"":4}","","","","","","","","","","","","","","","","","[]","HOTEL K5","DSTYOKHO","35.68271","139.77801","JP","TOK","CTR","HTL","3-5 NIHOMBASHI KABUTOCHO, TOKYO 103-0026","jp_tok-c_htl_a_mid1","180","jp_tok-c_htl_a_mid1_180"
"trial","survey","47","735375","0.0-2.0-45.0","610882926b500e6b59e8d5c4","626166b218b78fee4e9d8d4d","626175f035c80c21afae4941","15","10886","","{""P0_Q0"":null,""ambiguous"":2,""objects"":2,""invisible"":3,""chaos"":1}","","","","","","","","","","","","","","","","","[]","United States Postal Service","ChIJS0NV70lawokRJtOpGTdtCiU","40.6959073","-73.9899798","US","NYC","PER","POS","271 Cadman Plaza E Ste 2, Brooklyn, NY 11201, USA","us_nyc-p_pos_a_4","90","us_nyc-p_pos_a_4_90"
"trial","survey","48","746651","0.0-2.0-46.0","610882926b500e6b59e8d5c4","626166b218b78fee4e9d8d4d","626175f035c80c21afae4941","15","11258","","{""P0_Q0"":null,""ambiguous"":2,""objects"":3,""invisible"":3,""chaos"":2}","","","","","","","","","","","","","","","","","[]","Manually Updated Jittered SV for Nearby location of The Tokyo Station Hotel (jp_tok-c_htl_a_high2) (jp_tok-c_htl_b_high2)","ChIJYczFnPyLGGARpA9nubZ6QGc","35.67883","139.768186","JP","TOK","CTR","HTL","Tokyo Sta. Yaesuguchi(Yaesu Exit), 2-chōme-3 Yaesu, Chuo City, Tokyo 104-0028, Japan","jp_tok-c_htl_b_high2","90","jp_tok-c_htl_b_high2_90"
"trial","survey","49","756325","0.0-2.0-47.0","610882926b500e6b59e8d5c4","626166b218b78fee4e9d8d4d","626175f035c80c21afae4941","15","9660","","{""P0_Q0"":null,""ambiguous"":2,""objects"":2,""invisible"":1,""chaos"":1}","","","","","","","","","","","","","","","","","[]","Jittered SV for Horace Mann Barnard Elementary (us_nyc-p_sch_a_1)","ChIJXWJvya_zwokRupFUpNOXhkc","40.8931192","-73.899225","US","NYC","PER","SCH","231 W 246th St, Bronx, NY 10471, USA","us_nyc-p_sch_a_1","0","us_nyc-p_sch_a_1_0"
"trial","survey","50","767713","0.0-2.0-48.0","610882926b500e6b59e8d5c4","626166b218b78fee4e9d8d4d","626175f035c80c21afae4941","15","11366","","{""P0_Q0"":null,""ambiguous"":3,""objects"":1,""invisible"":3,""chaos"":3}","","","","","","","","","","","","","","","","","[]","USPS Bayside Carrier Annex","ChIJKfnG5OFhwokRDpTOYU_3G4g","40.7633707","-73.7662444","US","NYC","PER","POS","41-29 216th St, Bayside, NY 11361, USA","us_nyc-p_pos_a_1","270","us_nyc-p_pos_a_1_270"
"trial","survey","51","779205","0.0-2.0-49.0","610882926b500e6b59e8d5c4","626166b218b78fee4e9d8d4d","626175f035c80c21afae4941","15","11473","","{""P0_Q0"":null,""ambiguous"":2,""objects"":3,""invisible"":2,""chaos"":1}","","","","","","","","","","","","","","","","","[]","Nearby location of Tyler school (us_nyc-p_sch_a_3)","ChIJ_YUu76b0wokR2szNWwZJrq8","40.85244","-73.8576424","US","NYC","PER","SCH","1038 Neill Ave, Bronx, NY 10461, USA","us_nyc-p_sch_b_3","180","us_nyc-p_sch_b_3_180"
"trial","survey","52","789471","0.0-2.0-50.0","610882926b500e6b59e8d5c4","626166b218b78fee4e9d8d4d","626175f035c80c21afae4941","15","10253","","{""P0_Q0"":null,""ambiguous"":5,""objects"":3,""invisible"":5,""chaos"":5}","","","","","","","","","","","","","","","","","[]","Nearby location of Ōmori Bellport Post Office (jp_hik_pos_a_2)","ChIJ7Ywa2cxhGGARziYl93kj-_E","35.5874802","139.7328359","JP","HIK","HIK","POS","3-chōme-35-8 Minamiōi, Shinagawa City, Tokyo 140-0013, Japan","jp_hik_pos_b_2","270","jp_hik_pos_b_2_270"
"trial","survey","53","795879","0.0-2.0-51.0","610882926b500e6b59e8d5c4","626166b218b78fee4e9d8d4d","626175f035c80c21afae4941","15","6384","","{""P0_Q0"":null,""ambiguous"":2,""objects"":1,""invisible"":1,""chaos"":1}","","","","","","","","","","","","","","","","","[]","Nearby location of Fairfield Inn and Suites by Marriott New York Manhattan Times Square (us_nyc-c_htl_a_mid1)","ChIJt_ncpFJYwokRykJpalw_bYU","40.7575246","-73.994055","US","NYC","CTR","HTL","405 W 40th St, New York, NY 10018, USA","us_nyc-c_htl_b_mid1","0","us_nyc-c_htl_b_mid1_0"
"trial","survey","54","809365","0.0-2.0-52.0","610882926b500e6b59e8d5c4","626166b218b78fee4e9d8d4d","626175f035c80c21afae4941","15","13468","","{""P0_Q0"":null,""ambiguous"":2,""objects"":1,""invisible"":4,""chaos"":3}","","","","","","","","","","","","","","","","","[]","United States Postal Service","ChIJ1WavSUSuPIgRi9j9aKANWYg","42.2745042","-83.7339227","US","ARB","ARB","POS","1214 S University Ave Ste S104, Ann Arbor, MI 48104, USA","us_arb_pos_a_4","90","us_arb_pos_a_4_90"
"trial","survey","55","820179","0.0-2.0-53.0","610882926b500e6b59e8d5c4","626166b218b78fee4e9d8d4d","626175f035c80c21afae4941","15","10800","","{""P0_Q0"":null,""ambiguous"":4,""objects"":5,""invisible"":4,""chaos"":4}","","","","","","","","","","","","","","","","","[]","The Williamsburg Hotel","WVNYCTWH","40.72173","-73.95801","US","NYC","PER","HTL","96 WYTHE AVENUE, BROOKLYN, NY 11249","us_nyc-p_htl_a_high1","180","us_nyc-p_htl_a_high1_180"
"trial","survey","56","825876","0.0-2.0-54.0","610882926b500e6b59e8d5c4","626166b218b78fee4e9d8d4d","626175f035c80c21afae4941","15","5672","","{""P0_Q0"":null,""ambiguous"":1,""objects"":1,""invisible"":1,""chaos"":1}","","","","","","","","","","","","","","","","","[]","Tsukishima 2nd Elementary School","ChIJU0n9-HyJGGARNQSXKv-kIIY","35.6602474","139.7758266","JP","TOK","CTR","SCH","1-chōme-12-2 Kachidoki, Chuo City, Tokyo 104-0054, Japan","jp_tok-c_sch_a_3","90","jp_tok-c_sch_a_3_90"
"trial","survey","57","838209","0.0-2.0-55.0","610882926b500e6b59e8d5c4","626166b218b78fee4e9d8d4d","626175f035c80c21afae4941","15","12314","","{""P0_Q0"":null,""ambiguous"":5,""objects"":5,""invisible"":4,""chaos"":4}","","","","","","","","","","","","","","","","","[]","Nearby location of 3rd Haketa Elementary School (jp_tok-p_sch_a_1)","ChIJj82HZcOPGGARdlxKpMVK0K8","35.7349985","139.787222","JP","TOK","PER","SCH","Japan, 〒116-0002 Tokyo, Arakawa City, Arakawa, 1-chōme−26−１ ＮＴＴ ビル 本館1階","jp_tok-p_sch_b_1","90","jp_tok-p_sch_b_1_90"
"trial","survey","58","845519","0.0-2.0-56.0","610882926b500e6b59e8d5c4","626166b218b78fee4e9d8d4d","626175f035c80c21afae4941","15","7288","","{""P0_Q0"":null,""ambiguous"":1,""objects"":2,""invisible"":2,""chaos"":1}","","","","","","","","","","","","","","","","","[]","Nearby location of The Baltic House (us_nyc-p_htl_a_mid1)","ChIJz1earlRawokRerP6Itd2JDg","40.6806771","-73.9836973","US","NYC","PER","HTL","175 3rd Ave, Brooklyn, NY 11217, USA","us_nyc-p_htl_b_mid1","90","us_nyc-p_htl_b_mid1_90"
"trial","survey","59","850963","0.0-2.0-57.0","610882926b500e6b59e8d5c4","626166b218b78fee4e9d8d4d","626175f035c80c21afae4941","15","5426","","{""P0_Q0"":null,""ambiguous"":1,""objects"":1,""invisible"":1,""chaos"":1}","","","","","","","","","","","","","","","","","[]","Nearby location of Chelsea House Victorian Inn (us_chl_htl_a_high1)","ChIJrSMrxwHMPIgRw8h_aIwPHas","42.3194142","-84.0203567","US","CHL","CHL","HTL","310 N Main St Suite 202A, Chelsea, MI 48118, USA","us_chl_htl_b_high1","0","us_chl_htl_b_high1_0"
"trial","survey","60","858539","0.0-2.0-58.0","610882926b500e6b59e8d5c4","626166b218b78fee4e9d8d4d","626175f035c80c21afae4941","15","7561","","{""P0_Q0"":null,""ambiguous"":2,""objects"":2,""invisible"":3,""chaos"":1}","","","","","","","","","","","","","","","","","[]","Nearby location of Hikoneatohoteru (jp_hik_htl_a_low1)","ChIJc83wWVfUA2ARvLpBq3jM4k4","35.2381105","136.2567336","JP","HIK","HIK","HTL","Green Hill Takamiya Park, 1780 Takamiyachō, Hikone, Shiga 522-0201, Japan","jp_hik_htl_b_low1","180","jp_hik_htl_b_low1_180"
"trial","survey","61","865764","0.0-2.0-59.0","610882926b500e6b59e8d5c4","626166b218b78fee4e9d8d4d","626175f035c80c21afae4941","15","7212","","{""P0_Q0"":null,""ambiguous"":2,""objects"":2,""invisible"":1,""chaos"":1}","","","","","","","","","","","","","","","","","[]","Nearby location of Guidepost Montessori at Museum Mile (us_nyc-c_sch_a_7)","ChIJMU401IBZwokRBiUiZCbwkh0","40.7774782","-73.9615352","US","NYC","CTR","SCH","1070 Madison Ave, New York, NY 10028, USA","us_nyc-c_sch_b_7","180","us_nyc-c_sch_b_7_180"
"trial","survey","62","880157","0.0-2.0-60.0","610882926b500e6b59e8d5c4","626166b218b78fee4e9d8d4d","626175f035c80c21afae4941","15","14379","","{""P0_Q0"":null,""ambiguous"":4,""objects"":1,""invisible"":4,""chaos"":4}","","","","","","","","","","","","","","","","","[]","Nearby location of Bunkyo Otsuka 3 Post Office (jp_tok-c_pos_a_7)","ChIJ8yJGd6-NGGARH10utNOusFo","35.7205268","139.7394333","JP","TOK","CTR","POS","3-chōme-35-1 Ōtsuka, Bunkyo City, Tokyo 112-0012, Japan","jp_tok-c_pos_b_7","270","jp_tok-c_pos_b_7_270"
"trial","survey","63","885613","0.0-2.0-61.0","610882926b500e6b59e8d5c4","626166b218b78fee4e9d8d4d","626175f035c80c21afae4941","15","5443","","{""P0_Q0"":null,""ambiguous"":1,""objects"":2,""invisible"":1,""chaos"":1}","","","","","","","","","","","","","","","","","[]","Nearby location of Kirihara Higashi Elementary School (jp_hik_sch_a_2)","ChIJ44W9Gy96AWARDa0LDoFiGi8","35.1236331","136.0869352","JP","HIK","HIK","SCH","1379 Tsuchidachō, Omihachiman, Shiga 523-0082, Japan","jp_hik_sch_b_2","0","jp_hik_sch_b_2_0"
"trial","survey","64","895747","0.0-2.0-62.0","610882926b500e6b59e8d5c4","626166b218b78fee4e9d8d4d","626175f035c80c21afae4941","15","10112","","{""P0_Q0"":null,""ambiguous"":5,""objects"":2,""invisible"":4,""chaos"":4}","","","","","","","","","","","","","","","","","[]","Nearby location of Nihonbashi Elementary School (jp_tok-c_sch_a_7)","ChIJNS-5qVqJGGARajMXSGlTOSk","35.6833699","139.7826794","JP","TOK","CTR","SCH","1-chōme-15-9 Nihonbashikakigarachō, Chuo City, Tokyo 103-0014, Japan","jp_tok-c_sch_b_7","90","jp_tok-c_sch_b_7_90"
"trial","survey","65","903627","0.0-2.0-63.0","610882926b500e6b59e8d5c4","626166b218b78fee4e9d8d4d","626175f035c80c21afae4941","15","7863","","{""P0_Q0"":null,""ambiguous"":5,""objects"":5,""invisible"":5,""chaos"":5}","","","","","","","","","","","","","","","","","[]","Nearby location of 台東小学校跡 (jp_tok-c_sch_a_1)","ChIJRW4MQI-OGGARtWvlCd2h0KY","35.7243493","139.7843592","JP","TOK","CTR","SCH","Japan, 〒110-0003 Tokyo, Taito City, Negishi, 4-chōme−1−３ 安楽寺","jp_tok-c_sch_b_1","270","jp_tok-c_sch_b_1_270"
"trial","survey","66","911587","0.0-2.0-64.0","610882926b500e6b59e8d5c4","626166b218b78fee4e9d8d4d","626175f035c80c21afae4941","15","7945","","{""P0_Q0"":null,""ambiguous"":2,""objects"":3,""invisible"":2,""chaos"":1}","","","","","","","","","","","","","","","","","[]","Nearby location of HOTEL ALLAMANDA AOYAMA (jp_tok-c_htl_a_high1)","ChIJBeIIXpyMGGARp8F4yBa84pg","35.6704599","139.7189166","JP","TOK","CTR","HTL","2-chōme-22-14 Minamiaoyama, Minato City, Tokyo 107-0062, Japan","jp_tok-c_htl_b_high1","270","jp_tok-c_htl_b_high1_270"
"trial","survey","67","918181","0.0-2.0-65.0","610882926b500e6b59e8d5c4","626166b218b78fee4e9d8d4d","626175f035c80c21afae4941","15","6573","","{""P0_Q0"":null,""ambiguous"":2,""objects"":2,""invisible"":1,""chaos"":1}","","","","","","","","","","","","","","","","","[]","Nearby location of Higashi-Asakusa Elementary School (jp_tok-c_sch_a_8)","ChIJAytTi-2OGGARfOL1JBbMOoM","35.725672","139.7971627","JP","TOK","CTR","SCH","Japan, 〒111-0021 Tokyo, Taito City, Nihonzutsumi, 1-chōme−31−２ 平乃屋","jp_tok-c_sch_b_8","0","jp_tok-c_sch_b_8_0"
"trial","survey","68","927610","0.0-2.0-66.0","610882926b500e6b59e8d5c4","626166b218b78fee4e9d8d4d","626175f035c80c21afae4941","15","9411","","{""P0_Q0"":null,""ambiguous"":2,""objects"":2,""invisible"":1,""chaos"":1}","","","","","","","","","","","","","","","","","[]","Nearby location of Aijitsu Elementary School (jp_tok-c_sch_a_5)","ChIJn0gJcliMGGARx62E3ARcjRI","35.6987116","139.7326211","JP","TOK","CTR","SCH","2-8 Saikumachi, Shinjuku City, Tokyo 162-0838, Japan","jp_tok-c_sch_b_5","180","jp_tok-c_sch_b_5_180"
"trial","survey","69","937960","0.0-2.0-67.0","610882926b500e6b59e8d5c4","626166b218b78fee4e9d8d4d","626175f035c80c21afae4941","15","10335","","{""P0_Q0"":null,""ambiguous"":3,""objects"":1,""invisible"":2,""chaos"":3}","","","","","","","","","","","","","","","","","[]","Nearby location of United States Postal Service (us_nyc-p_pos_a_4)","ChIJQdQ0qElawokRA-jOMdpWwLc","40.6945583","-73.9912686","US","NYC","PER","POS","154 Pierrepont St, Brooklyn, NY 11201, USA","us_nyc-p_pos_b_4","180","us_nyc-p_pos_b_4_180"
"demographics","survey-html-form","70","950217","0.0-2.0-68.0","610882926b500e6b59e8d5c4","626166b218b78fee4e9d8d4d","626175f035c80c21afae4941","15","12252","","{""age"":""30"",""gender"":""female"",""gender-self-describe"":"""",""zipcode"":""80631""}","","","","","","","","","","","","","","","","","","","","","","","","","","","","",""
"demographics","survey","71","990459","0.0-2.0-69.0","610882926b500e6b59e8d5c4","626166b218b78fee4e9d8d4d","626175f035c80c21afae4941","15","40213","","{""P0_Q0"":null,""outsideUS"":""Yes"",""outsideUS_years"":""10 years ""}","","","","","","","","","","","","","","","","","[]","","","","","","","","","","","",""
"end-survey","survey-text","72","1012447","0.0-2.0-70.0","610882926b500e6b59e8d5c4","626166b218b78fee4e9d8d4d","626175f035c80c21afae4941","15","21979","","{""Q0"":""""}","","","","","","","","","","","","","","","","","","","","","","","","","","","","",""
