"task","trial_type","trial_index","time_elapsed","internal_node_id","subject_id","study_id","session_id","group","rt","stimulus","response","width","height","webaudio","browser","browser_version","mobile","os","fullscreen","vsync_rate","webcam","microphone","success","timeout","failed_images","failed_audio","failed_video","accuracy","name","place_id","lat","lng","culture","loc1","loc2","loct","address","loc_id_prev","angle","loc_id"
"pavlovia-init","pavlovia","0","1134","0.0-0.0","60f7818f24735a8f072aec3a","625e209c10a247530e1c6964","625eee2950e63b48ec2efcd4","10","","","","","","","","","","","","","","","","","","","","","","","","","","","","","","","",""
"consent","html-button-response","1","8727","0.0-1.0","60f7818f24735a8f072aec3a","625e209c10a247530e1c6964","625eee2950e63b48ec2efcd4","10","7589","
        <div style=""font-size: 80%; max-width:700px"">
            <h2>Informed Consent</h2><br>
        
            <div style=""text-align: left"">
            <h3>Streetscape Perceptions</h3>
            <b>HUM00189138</b>
            <br><hr>
        
            <h4>DESCRIPTION</h4>
            <p>
                In this study, you will view Google Street View images. You will then answer questions about your impressions of the streetscapes presented in those images.
            </p><br>
        
            <h4>TIME INVOLVEMENT</h4>
            <p>Your participation will take approximately 30 minutes.</p><br>
        
            <h4>RISKS AND BENEFITS</h4>
            <p>
                The risks associated with this study are minimal. The benefits which may reasonably be expected to result from this study are none.  We cannot and do not guarantee or promise that you will receive any benefits from this study. 
            </p><br>
        
            <h4>PAYMENTS</h4>
            <p>You will be paid <b>$5.00</b> for your participation.</p><br>
        
            <h4>SUBJECT'S RIGHTS</h4>
            <p>
                If you have read this form and have decided to participate in this project, please understand your participation is voluntary and you have the right to withdraw your consent or discontinue participation at any time without penalty or loss of benefits to which you are otherwise entitled.  The alternative is not to participate.  You have the right to refuse to answer particular questions.  
            </p>
        
            <p>
                Your individual privacy will be maintained in all published and written data resulting from the study. Your responses will be kept confidential: you are given a participant code, and no one, not even the research team, can match that code with your identity. Your collected information may also be shared with other researchers as part of our dataset.
            </p><br>
        
            <h4>CONTACT INFORMATION</h4>
            <p>
                Questions: If you have any questions, concerns or complaints about this research, its procedures, risks and benefits, contact the Protocol Director, Nicholas Camp, npcamp@umich.edu, (443) 851-6783.
            </p>
        
            <p>
                If you have questions about your rights as a research participant, or wish to obtain information, ask questions or discuss any concerns about this study with someone other than the researcher(s), please contact the following:
                <br><br>
        
                University of Michigan<br>
                Health Sciences and Behavioral Sciences Institutional Review Board
                (IRB-HSBS)<br>
                2800 Plymouth Road <br>
                Building 520, Room 1169 <br>
                Ann Arbor, MI 48109-2800 <br>
                Telephone: 734-936-0933 or toll free (866) 936-0933 <br>
                Fax: 734-936-1852 <br />
                E-mail: irbhsbs@umich.edu <br>
            </p>
        
            <p>
                You can also contact the University of Michigan Compliance Hotline at 1-866-990-0111. You may also print this consent form to keep.
            </p>
            <br>
        
            <div class=""alert alert-warning""><b>
                Do you consent to participate in this study? If you consent to participate in this study, please click “Accept and continue.”
            </b></div>
            </div>
        </div>
    ","1","","","","","","","","","","","","","","","","","","","","","","","","","","","","",""
"browser-check","browser-check","2","9714","0.0-2.0-0.0","60f7818f24735a8f072aec3a","625e209c10a247530e1c6964","625eee2950e63b48ec2efcd4","10","","","","1366","657","true","chrome","99.0.4844","false","Windows 10","true","61.06","true","true","","","","","","","","","","","","","","","","","",""
"","preload","3","10713","0.0-2.0-1.0","60f7818f24735a8f072aec3a","625e209c10a247530e1c6964","625eee2950e63b48ec2efcd4","10","","","","","","","","","","","","","","","true","false","[]","[]","[]","","","","","","","","","","","","",""
"instructions","html-button-response","4","16327","0.0-2.0-2.0","60f7818f24735a8f072aec3a","625e209c10a247530e1c6964","625eee2950e63b48ec2efcd4","10","5613","
        <div class=""text-container"">
            <h1>Welcome to the study!</h1>
            
            <div class=""text-left"">
                <p>
                    In this study, we are interested in how people think about different Google Street View images. Google Street View takes pictures of streets used for Google Earth and Google Maps. You’ll see Google Street View images of different places and answer some questions about each one.
                </p>
            </div>
            
            <img src='
            https://maps.googleapis.com/maps/api/streetview?size=640x320
            &location=37.783631,-122.432766
            &heading=80
            &pitch=2
            &fov=100
            &radius=150
            &key=AIzaSyC2OxRDg6qlzZDj7j0UAD2XyE0qWokLvvs
            &source=outdoor'>
        
            <br>
        <br>
    ","0","","","","","","","","","","","","","","","","","","","","","","","","","","","","",""
"instructions","html-button-response","5","72935","0.0-2.0-3.0","60f7818f24735a8f072aec3a","625e209c10a247530e1c6964","625eee2950e63b48ec2efcd4","10","56294","
        <style>
            img.small {
            max-width: 100px;
            }
            li {
            text-indent: 40px;
            }
        </style>

        <div class=""text-container text-left"">
            <p>For each picture, we’d like your impressions of the scene:</p>
            
            <hr>
                Are there <b>clear, distinct boundaries</b> between objects in the scene, or are the <b>boundaries ambiguous or unclear</b>?
                
                <li>clear, distinct boundaries: <img class=""small"" src=""assets/img/ambiguous-low.png""></li>
                <li>ambiguous or unclear boundaries: <img class=""small"" src=""assets/img/ambiguous-high.png""></li>
            <hr>
            <br>
                Are there <b>only a few different objects</b> in the scene, or is there <b>a large number</b>?
            <br><br>
            <hr>
                Are only <b>a few parts</b> of the scene <b>invisible or obscured</b>, or are <b>many parts invisible or obscured</b>?
                
                <li>a few parts invisible or obscured: <img class=""small"" src=""assets/img/invisible-low.png""></li>
                <li>many parts invisible or obscured: <img class=""small"" src=""assets/img/invisible-high.png""></li>
            <hr>
            <br>
                Does the scene look <b>organized</b> or <b>chaotic</b> to you?
            <br><br>
            <hr>
            
            <p>
                There are no right or wrong answers: we are interested in <b>your</b> impression. Note that some images might have individual buildings or faces blurred for privacy. Please ignore these when making your judgments.
            </p>
        </div>
        <br>
    ","0","","","","","","","","","","","","","","","","","","","","","","","","","","","","",""
"instructions","html-button-response","6","74584","0.0-2.0-4.0","60f7818f24735a8f072aec3a","625e209c10a247530e1c6964","625eee2950e63b48ec2efcd4","10","1648","
        <div class=""text-container text-left"">
            <p>Please make sure you are doing this study in an area where you can focus and complete the survey in one sitting.</p>

            <p>Don’t spend too much time on any one picture, and, again go with your gut impression!</p>
            
            <p>The study should take about 30 minutes. We’ll let you know when you’re halfway through.</p>
        </div>
            
        <h3>Ready? Click next to get started!</h3>
        <br>
    ","0","","","","","","","","","","","","","","","","","","","","","","","","","","","","",""
"trial","survey","7","103724","0.0-2.0-5.0","60f7818f24735a8f072aec3a","625e209c10a247530e1c6964","625eee2950e63b48ec2efcd4","10","29091","","{""P0_Q0"":null,""ambiguous"":2,""objects"":2,""invisible"":3,""chaos"":3}","","","","","","","","","","","","","","","","","[]","Nearby location of Chelsea House Victorian Inn (us_chl_htl_a_high1)","ChIJrSMrxwHMPIgRw8h_aIwPHas","42.3194142","-84.0203567","US","CHL","CHL","HTL","310 N Main St Suite 202A, Chelsea, MI 48118, USA","us_chl_htl_b_high1","90","us_chl_htl_b_high1_90"
"trial","survey","8","151287","0.0-2.0-6.0","60f7818f24735a8f072aec3a","625e209c10a247530e1c6964","625eee2950e63b48ec2efcd4","10","47548","","{""P0_Q0"":null,""ambiguous"":3,""objects"":3,""invisible"":4,""chaos"":5}","","","","","","","","","","","","","","","","","[]","Nearby location of Minami-Ikebukuro Post Office (jp_tok-c_pos_a_6)","ChIJYSTPzWmNGGARuevXlN7s3ko","35.7261522","139.7122633","JP","TOK","CTR","POS","3-chōme-13-20 Minamiikebukuro, Toshima City, Tokyo 171-0022, Japan","jp_tok-c_pos_b_6","0","jp_tok-c_pos_b_6_0"
"trial","survey","9","168889","0.0-2.0-7.0","60f7818f24735a8f072aec3a","625e209c10a247530e1c6964","625eee2950e63b48ec2efcd4","10","17590","","{""P0_Q0"":null,""ambiguous"":4,""objects"":4,""invisible"":2,""chaos"":4}","","","","","","","","","","","","","","","","","[]","Nearby location of Tyler school (us_nyc-p_sch_a_3)","ChIJ_YUu76b0wokR2szNWwZJrq8","40.85244","-73.8576424","US","NYC","PER","SCH","1038 Neill Ave, Bronx, NY 10461, USA","us_nyc-p_sch_b_3","270","us_nyc-p_sch_b_3_270"
"trial","survey","10","194551","0.0-2.0-8.0","60f7818f24735a8f072aec3a","625e209c10a247530e1c6964","625eee2950e63b48ec2efcd4","10","25649","","{""P0_Q0"":null,""ambiguous"":2,""objects"":3,""invisible"":3,""chaos"":4}","","","","","","","","","","","","","","","","","[]","Nearby location of THOMPSON CENTRAL PARK - NEW YORK (us_nyc-c_htl_a_high2)","ChIJO4JkSfdYwokRIlgrbHiZhtk","40.7652312","-73.9775167","US","NYC","CTR","HTL","116 W 58th St, New York, NY 10019, USA","us_nyc-c_htl_b_high2","270","us_nyc-c_htl_b_high2_270"
"trial","survey","11","218338","0.0-2.0-9.0","60f7818f24735a8f072aec3a","625e209c10a247530e1c6964","625eee2950e63b48ec2efcd4","10","23777","","{""P0_Q0"":null,""ambiguous"":1,""objects"":2,""invisible"":1,""chaos"":1}","","","","","","","","","","","","","","","","","[]","Hotel Villa Fontaine Nihombashi-Hakozaki","HSTYOASY","35.68042","139.78604","JP","TOK","CTR","HTL","20-10, NIHOMBASHI-HAKOZAKI-CHO, TOKYO 103-0015","jp_tok-c_htl_a_low1","270","jp_tok-c_htl_a_low1_270"
"trial","survey","12","243869","0.0-2.0-10.0","60f7818f24735a8f072aec3a","625e209c10a247530e1c6964","625eee2950e63b48ec2efcd4","10","25518","","{""P0_Q0"":null,""ambiguous"":3,""objects"":3,""invisible"":3,""chaos"":2}","","","","","","","","","","","","","","","","","[]","Kanponoyado Hikone","ChIJlbdbLicrAmARI9pD-bcXKlg","35.2872369","136.2493256","JP","HIK","HIK","HTL","3759 Matsubarachō, Hikone, Shiga 522-0002, Japan","jp_hik_htl_a_mid1","90","jp_hik_htl_a_mid1_90"
"trial","survey","13","264389","0.0-2.0-11.0","60f7818f24735a8f072aec3a","625e209c10a247530e1c6964","625eee2950e63b48ec2efcd4","10","20510","","{""P0_Q0"":null,""ambiguous"":1,""objects"":1,""invisible"":1,""chaos"":2}","","","","","","","","","","","","","","","","","[]","Nearby location of Quality Inn and Suites Ann Arbor Hwy 23 (us_arb_htl_a_mid2)","ChIJUf9k3i2vPIgRY6-MziLWsGc","42.25094","-83.682429","US","ARB","ARB","HTL","2525 Gross Rd, Ann Arbor, MI 48108, USA","us_arb_htl_b_mid2","180","us_arb_htl_b_mid2_180"
"trial","survey","14","286567","0.0-2.0-12.0","60f7818f24735a8f072aec3a","625e209c10a247530e1c6964","625eee2950e63b48ec2efcd4","10","22167","","{""P0_Q0"":null,""ambiguous"":4,""objects"":3,""invisible"":3,""chaos"":4}","","","","","","","","","","","","","","","","","[]","Nearby location of Tokyo Marriott Hotel (jp_tok-p_htl_a_high1)","ChIJsyQuX16KGGARNJl4U-sZQG0","35.620812","139.7355647","JP","TOK","PER","HTL","Japan, 〒140-0001 Tokyo, Shinagawa City, Kitashinagawa, 4-chōme−6−１７ セレソ御殿山","jp_tok-p_htl_b_high1","180","jp_tok-p_htl_b_high1_180"
"trial","survey","15","304697","0.0-2.0-13.0","60f7818f24735a8f072aec3a","625e209c10a247530e1c6964","625eee2950e63b48ec2efcd4","10","18119","","{""P0_Q0"":null,""ambiguous"":4,""objects"":1,""invisible"":2,""chaos"":1}","","","","","","","","","","","","","","","","","[]","Nearby location of Nagahama Shiritsu Torahime Elementary School (jp_tor_sch_a_1)","ChIJfT7yNZ8oAmAROTHUpaMv9Ak","35.419735","136.265362","JP","TOR","TOR","SCH","2410 Miyabechō, Nagahama, Shiga 529-0112, Japan","jp_tor_sch_b_1","270","jp_tor_sch_b_1_270"
"trial","survey","16","338586","0.0-2.0-14.0","60f7818f24735a8f072aec3a","625e209c10a247530e1c6964","625eee2950e63b48ec2efcd4","10","33877","","{""P0_Q0"":null,""ambiguous"":3,""objects"":4,""invisible"":3,""chaos"":2}","","","","","","","","","","","","","","","","","[]","Nearby location of Best Western Plus Arena Hotel (us_nyc-p_htl_a_low1)","ChIJszayzJpbwokR1Pc20klCR2Y","40.679297","-73.947757","US","NYC","PER","HTL","170 Herkimer St, Brooklyn, NY 11216, USA","us_nyc-p_htl_b_low1","90","us_nyc-p_htl_b_low1_90"
"trial","survey","17","353941","0.0-2.0-15.0","60f7818f24735a8f072aec3a","625e209c10a247530e1c6964","625eee2950e63b48ec2efcd4","10","15345","","{""P0_Q0"":null,""ambiguous"":1,""objects"":3,""invisible"":1,""chaos"":1}","","","","","","","","","","","","","","","","","[]","Sandy Hook CenTer","ChIJdzryqpZZwokRskdUpqxDvaI","40.7330008","-74.0005218","US","NYC","CTR","SCH","136 Waverly Pl, New York, NY 10014, USA","us_nyc-c_sch_a_4","270","us_nyc-c_sch_a_4_270"
"trial","survey","18","377007","0.0-2.0-16.0","60f7818f24735a8f072aec3a","625e209c10a247530e1c6964","625eee2950e63b48ec2efcd4","10","23057","","{""P0_Q0"":null,""ambiguous"":1,""objects"":4,""invisible"":2,""chaos"":3}","","","","","","","","","","","","","","","","","[]","Nearby location of Mitsui Garden Kyobashi Tokyo (jp_tok-c_htl_a_low2)","ChIJp2pEW_2LGGARnNNe1pDMCrc","35.6801013","139.7722917","JP","TOK","CTR","HTL","3 Chome-7 Nihonbashi, Chuo City, Tokyo 103-0027, Japan","jp_tok-c_htl_b_low2","0","jp_tok-c_htl_b_low2_0"
"trial","survey","19","392404","0.0-2.0-17.0","60f7818f24735a8f072aec3a","625e209c10a247530e1c6964","625eee2950e63b48ec2efcd4","10","15386","","{""P0_Q0"":null,""ambiguous"":1,""objects"":1,""invisible"":1,""chaos"":2}","","","","","","","","","","","","","","","","","[]","Nearby location of United States Postal Service (us_nyc-c_pos_a_6)","ChIJ63f0hz9ZwokRTruThu3Ng6s","40.7682731","-73.9822808","US","NYC","CTR","POS","15 Columbus Cir, New York, NY 10019, USA","us_nyc-c_pos_b_6","0","us_nyc-c_pos_b_6_0"
"trial","survey","20","404812","0.0-2.0-18.0","60f7818f24735a8f072aec3a","625e209c10a247530e1c6964","625eee2950e63b48ec2efcd4","10","12398","","{""P0_Q0"":null,""ambiguous"":1,""objects"":1,""invisible"":1,""chaos"":1}","","","","","","","","","","","","","","","","","[]","Nearby location of HOTEL ALLAMANDA AOYAMA (jp_tok-c_htl_a_high1)","ChIJBeIIXpyMGGARp8F4yBa84pg","35.6704599","139.7189166","JP","TOK","CTR","HTL","2-chōme-22-14 Minamiaoyama, Minato City, Tokyo 107-0062, Japan","jp_tok-c_htl_b_high1","180","jp_tok-c_htl_b_high1_180"
"trial","survey","21","417422","0.0-2.0-19.0","60f7818f24735a8f072aec3a","625e209c10a247530e1c6964","625eee2950e63b48ec2efcd4","10","12599","","{""P0_Q0"":null,""ambiguous"":1,""objects"":3,""invisible"":1,""chaos"":1}","","","","","","","","","","","","","","","","","[]","Nearby location of South Meadows Elementary School (us_chl_sch_a_1)","ChIJFQ7Lva7OPIgR_c0d98fxzFI","42.3109393","-84.0229592","US","CHL","CHL","SCH","511 Maywood St, Chelsea, MI 48118, USA","us_chl_sch_b_1","270","us_chl_sch_b_1_270"
"trial","survey","22","428948","0.0-2.0-20.0","60f7818f24735a8f072aec3a","625e209c10a247530e1c6964","625eee2950e63b48ec2efcd4","10","11517","","{""P0_Q0"":null,""ambiguous"":1,""objects"":1,""invisible"":1,""chaos"":1}","","","","","","","","","","","","","","","","","[]","Katsushika Higashishinkoiwa Post Office","ChIJRa6FOAeGGGAR0DyxE6La1Zw","35.7226708","139.8606781","JP","TOK","PER","POS","Japan, 〒124-0023 Tokyo, Katsushika City, Higashishinkoiwa, 3-chōme−11−１１−５ 葛飾東新小岩郵便局","jp_tok-p_pos_a_6","270","jp_tok-p_pos_a_6_270"
"trial","survey","23","456524","0.0-2.0-21.0","60f7818f24735a8f072aec3a","625e209c10a247530e1c6964","625eee2950e63b48ec2efcd4","10","27569","","{""P0_Q0"":null,""ambiguous"":1,""objects"":2,""invisible"":2,""chaos"":1}","","","","","","","","","","","","","","","","","[]","Nearby location of United States Postal Service (us_nyc-p_pos_a_2)","ChIJLSVr_e-JwokR4naG8qzZU4M","40.769638","-73.735929","US","NYC","PER","POS","252-02 Northern Blvd, Flushing, NY 11362, USA","us_nyc-p_pos_b_2","270","us_nyc-p_pos_b_2_270"
"trial","survey","24","475703","0.0-2.0-22.0","60f7818f24735a8f072aec3a","625e209c10a247530e1c6964","625eee2950e63b48ec2efcd4","10","19171","","{""P0_Q0"":null,""ambiguous"":2,""objects"":3,""invisible"":1,""chaos"":1}","","","","","","","","","","","","","","","","","[]","United States Postal Service","ChIJIRvhvPqJwokRje-X_pYcWug","40.7684345","-73.7370948","US","NYC","PER","POS","25010 Northern Blvd, Queens, NY 11362, USA","us_nyc-p_pos_a_2","270","us_nyc-p_pos_a_2_270"
"trial","survey","25","494188","0.0-2.0-23.0","60f7818f24735a8f072aec3a","625e209c10a247530e1c6964","625eee2950e63b48ec2efcd4","10","18472","","{""P0_Q0"":null,""ambiguous"":1,""objects"":3,""invisible"":1,""chaos"":2}","","","","","","","","","","","","","","","","","[]","Nearby location of United States Postal Service (us_nyc-c_pos_a_3)","ChIJpWHPQID2wokRneXgmeORzP4","40.8291253","-73.9375732","US","NYC","CTR","POS","2925 Frederick Douglass Blvd, New York, NY 10039, USA","us_nyc-c_pos_b_3","0","us_nyc-c_pos_b_3_0"
"trial","survey","26","600129","0.0-2.0-24.0","60f7818f24735a8f072aec3a","625e209c10a247530e1c6964","625eee2950e63b48ec2efcd4","10","105931","","{""P0_Q0"":null,""ambiguous"":1,""objects"":1,""invisible"":1,""chaos"":1}","","","","","","","","","","","","","","","","","[]","Nagahama Shiritsu Torahime Elementary School","ChIJWVB8Ap8oAmARFLmHXCq8zOo","35.4207316","136.2639813","JP","TOR","TOR","SCH","88 Gomura, Nagahama, Shiga 529-0141, Japan","jp_tor_sch_a_1","90","jp_tor_sch_a_1_90"
"trial","survey","27","622781","0.0-2.0-25.0","60f7818f24735a8f072aec3a","625e209c10a247530e1c6964","625eee2950e63b48ec2efcd4","10","22643","","{""P0_Q0"":null,""ambiguous"":1,""objects"":null,""invisible"":1,""chaos"":2}","","","","","","","","","","","","","","","","","[]","The Westin Tokyo","WITYOTOK","35.64174","139.71551","JP","TOK","PER","HTL","1 4 1 MITA MEGURO KU, TOKYO 1538580","jp_tok-p_htl_a_high2","0","jp_tok-p_htl_a_high2_0"
"trial","survey","28","644674","0.0-2.0-26.0","60f7818f24735a8f072aec3a","625e209c10a247530e1c6964","625eee2950e63b48ec2efcd4","10","21885","","{""P0_Q0"":null,""ambiguous"":2,""objects"":2,""invisible"":2,""chaos"":2}","","","","","","","","","","","","","","","","","[]","Best Western Plus Arena Hotel","BWJFK142","40.67815","-73.94879","US","NYC","PER","HTL","1324 ATLANTIC AVENUE, BROOKLYN, NY 11216","us_nyc-p_htl_a_low1","270","us_nyc-p_htl_a_low1_270"
"trial","survey","29","660702","0.0-2.0-27.0","60f7818f24735a8f072aec3a","625e209c10a247530e1c6964","625eee2950e63b48ec2efcd4","10","16019","","{""P0_Q0"":null,""ambiguous"":1,""objects"":2,""invisible"":1,""chaos"":1}","","","","","","","","","","","","","","","","","[]","Nearby location of United States Postal Service (us_arb_pos_a_4)","ChIJR4RkkESuPIgRZJrbYhGLI8k","42.2762108","-83.7323861","US","ARB","ARB","POS","1315 Washtenaw Ave, Ann Arbor, MI 48104, USA","us_arb_pos_b_4","270","us_arb_pos_b_4_270"
"trial","survey","30","690021","0.0-2.0-28.0","60f7818f24735a8f072aec3a","625e209c10a247530e1c6964","625eee2950e63b48ec2efcd4","10","29311","","{""P0_Q0"":null,""ambiguous"":1,""objects"":1,""invisible"":1,""chaos"":2}","","","","","","","","","","","","","","","","","[]","Nearby location of Katsushika City Iizuka Elementary School (jp_tok-p_sch_a_3)","ChIJ1_4-r2CFGGARraiLOcCqmco","35.7780152","139.8593261","JP","TOK","PER","SCH","Japan, 〒125-0035 Tokyo, Katsushika City, Minamimizumoto, 2-chōme−28−１６ セブンツークラッシックマンション","jp_tok-p_sch_b_3","0","jp_tok-p_sch_b_3_0"
"trial","survey","31","711469","0.0-2.0-29.0","60f7818f24735a8f072aec3a","625e209c10a247530e1c6964","625eee2950e63b48ec2efcd4","10","21440","","{""P0_Q0"":null,""ambiguous"":3,""objects"":2,""invisible"":3,""chaos"":3}","","","","","","","","","","","","","","","","","[]","Nearby location of Kirihara Higashi Elementary School (jp_hik_sch_a_2)","ChIJ44W9Gy96AWARDa0LDoFiGi8","35.1236331","136.0869352","JP","HIK","HIK","SCH","1379 Tsuchidachō, Omihachiman, Shiga 523-0082, Japan","jp_hik_sch_b_2","270","jp_hik_sch_b_2_270"
"trial","survey","32","729458","0.0-2.0-30.0","60f7818f24735a8f072aec3a","625e209c10a247530e1c6964","625eee2950e63b48ec2efcd4","10","17981","","{""P0_Q0"":null,""ambiguous"":1,""objects"":2,""invisible"":2,""chaos"":2}","","","","","","","","","","","","","","","","","[]","Nearby location of Tsukishima 2nd Elementary School (jp_tok-c_sch_a_3)","ChIJHxLhHn2JGGARc3bs4ikCKls","35.660785","139.775206","JP","TOK","CTR","SCH","1-chōme-13-13-1 Kachidoki, Chuo City, Tokyo 104-0054, Japan","jp_tok-c_sch_b_3","0","jp_tok-c_sch_b_3_0"
"trial","survey","33","748260","0.0-2.0-31.0","60f7818f24735a8f072aec3a","625e209c10a247530e1c6964","625eee2950e63b48ec2efcd4","10","18794","","{""P0_Q0"":null,""ambiguous"":3,""objects"":3,""invisible"":3,""chaos"":3}","","","","","","","","","","","","","","","","","[]","Nearby location of Hotel JAL City Tokyo Toyosu (jp_tok-p_htl_a_mid1)","ChIJhxfMYB-JGGARzU1jFMgKRZ8","35.684968","139.8100484","JP","TOK","PER","HTL","1-chōme-1-7 Sarue, Koto City, Tokyo 135-0003, Japan","jp_tok-p_htl_b_mid1","90","jp_tok-p_htl_b_mid1_90"
"trial","survey","34","763978","0.0-2.0-32.0","60f7818f24735a8f072aec3a","625e209c10a247530e1c6964","625eee2950e63b48ec2efcd4","10","15709","","{""P0_Q0"":null,""ambiguous"":1,""objects"":1,""invisible"":1,""chaos"":1}","","","","","","","","","","","","","","","","","[]","Nearby location of TownePlace Suites by Marriott Ann Arbor (us_arb_htl_a_mid1)","ChIJ71gCcu-vPIgRi_B5Ob5B76o","42.2367203","-83.7509139","US","ARB","ARB","HTL","1126 Lariat Loop, Ann Arbor, MI 48108, USA","us_arb_htl_b_mid1","90","us_arb_htl_b_mid1_90"
"trial","survey","35","805640","0.0-2.0-33.0","60f7818f24735a8f072aec3a","625e209c10a247530e1c6964","625eee2950e63b48ec2efcd4","10","41654","","{""P0_Q0"":null,""ambiguous"":1,""objects"":2,""invisible"":3,""chaos"":3}","","","","","","","","","","","","","","","","","[]","台東小学校跡","ChIJPzL6D6mPGGAROc_ZDczQMBw","35.7231123","139.7860147","JP","TOK","CTR","SCH","3-chōme-1-30 Shitaya, Taito City, Tokyo 110-0004, Japan","jp_tok-c_sch_a_1","180","jp_tok-c_sch_a_1_180"
"trial","survey","36","827116","0.0-2.0-34.0","60f7818f24735a8f072aec3a","625e209c10a247530e1c6964","625eee2950e63b48ec2efcd4","10","21466","","{""P0_Q0"":null,""ambiguous"":3,""objects"":3,""invisible"":2,""chaos"":2}","","","","","","","","","","","","","","","","","[]","United States Postal Service","ChIJb5pfwxb2wokR4-EvJ1w0znA","40.8036447","-73.9541827","US","NYC","CTR","POS","232 W 116th St, New York, NY 10026, USA","us_nyc-c_pos_a_7","0","us_nyc-c_pos_a_7_0"
"trial","survey","37","846578","0.0-2.0-35.0","60f7818f24735a8f072aec3a","625e209c10a247530e1c6964","625eee2950e63b48ec2efcd4","10","19453","","{""P0_Q0"":null,""ambiguous"":1,""objects"":2,""invisible"":3,""chaos"":3}","","","","","","","","","","","","","","","","","[]","Nearby location of United States Postal Service (us_nyc-p_pos_a_3)","ChIJe2q9KVpDwokRU6MLLhMmHvo","40.6168044","-73.9301797","US","NYC","PER","POS","Parking lot, 2187 Flatbush Ave, Brooklyn, NY 11234, USA","us_nyc-p_pos_b_3","180","us_nyc-p_pos_b_3_180"
"trial","survey","38","871931","0.0-2.0-36.0","60f7818f24735a8f072aec3a","625e209c10a247530e1c6964","625eee2950e63b48ec2efcd4","10","25343","","{""P0_Q0"":null,""ambiguous"":2,""objects"":2,""invisible"":2,""chaos"":3}","","","","","","","","","","","","","","","","","[]","Nearby location of Nakano Sun Cuore Post Office (jp_tok-p_pos_a_2)","ChIJ_6f_XpryGGARylU0pXEPcbM","35.7102066","139.6632353","JP","TOK","PER","POS","2-chōme-30-7 Arai, Nakano City, Tokyo 165-0026, Japan","jp_tok-p_pos_b_2","90","jp_tok-p_pos_b_2_90"
"trial","survey","39","884839","0.0-2.0-37.0","60f7818f24735a8f072aec3a","625e209c10a247530e1c6964","625eee2950e63b48ec2efcd4","10","12900","","{""P0_Q0"":null,""ambiguous"":1,""objects"":1,""invisible"":1,""chaos"":1}","","","","","","","","","","","","","","","","","[]","Léman Manhattan Preparatory School","ChIJ1R3juBZawokRy34rGleDCJs","40.7060686","-74.0140159","US","NYC","CTR","SCH","1 Morris St, New York, NY 10004, USA","us_nyc-c_sch_a_8","180","us_nyc-c_sch_a_8_180"
"trial","survey","40","899595","0.0-2.0-38.0","60f7818f24735a8f072aec3a","625e209c10a247530e1c6964","625eee2950e63b48ec2efcd4","10","14748","","{""P0_Q0"":null,""ambiguous"":1,""objects"":1,""invisible"":1,""chaos"":1}","","","","","","","","","","","","","","","","","[]","Nearby location of Math, Language and Art Elementary Math Algebra I & II Geometry PreCalculus Calculus College Math Data Analysis (us_nyc-p_sch_a_2)","ChIJrTWRtBpgwokRN4EStLSswiQ","40.7637342","-73.8299598","US","NYC","PER","SCH","137-35 Northern Blvd, Queens, NY 11354, USA","us_nyc-p_sch_b_2","180","us_nyc-p_sch_b_2_180"
"trial","survey","41","924492","0.0-2.0-39.0","60f7818f24735a8f072aec3a","625e209c10a247530e1c6964","625eee2950e63b48ec2efcd4","10","24889","","{""P0_Q0"":null,""ambiguous"":3,""objects"":3,""invisible"":3,""chaos"":3}","","","","","","","","","","","","","","","","","[]","INTERCONTINENTAL THE STRINGS","ICTYOSTR","35.62791","139.74075","JP","TOK","CTR","HTL","26 32 F SHINAGAWA EAST ONE TWR 2 16 1 KONAN, TOKYO 108 8282","jp_tok-c_htl_a_mid2","270","jp_tok-c_htl_a_mid2_270"
"attention-check","survey","42","938067","0.0-2.0-40.0","60f7818f24735a8f072aec3a","625e209c10a247530e1c6964","625eee2950e63b48ec2efcd4","10","13566","","{""P0_Q0"":null,""ambiguous"":null,""objects"":null,""invisible"":null,""chaos"":null}","","","","","","","","","","","","","","","","","[]","","","","","","","","","","","",""
"half-way","html-button-response","43","953822","0.0-2.0-41.0","60f7818f24735a8f072aec3a","625e209c10a247530e1c6964","625eee2950e63b48ec2efcd4","10","null","
            <h3>You are now half way through the study.</h3>
            <p>Please take a quick, 15-second break before you continue.</p>
            <img src='assets/img/countdown-15.gif'>
            <p>The study will automatically advance forward after the countdown is complete. However, you may click ""Next"" to advance forward now if you wish.</p>
        ","null","","","","","","","","","","","","","","","","","","","","","","","","","","","","",""
"trial","survey","44","995117","0.0-2.0-42.0","60f7818f24735a8f072aec3a","625e209c10a247530e1c6964","625eee2950e63b48ec2efcd4","10","41259","","{""P0_Q0"":null,""ambiguous"":1,""objects"":1,""invisible"":1,""chaos"":1}","","","","","","","","","","","","","","","","","[]","Nearby location of United States Postal Service (us_arb_pos_a_3)","GhIJwCSVKeYbRUARAUenU8PnVMA","42.2179615","-83.6212968","US","ARB","ARB","POS","699H+5F Ypsilanti Charter Township, MI, USA","us_arb_pos_b_3","90","us_arb_pos_b_3_90"
"trial","survey","45","1019488","0.0-2.0-43.0","60f7818f24735a8f072aec3a","625e209c10a247530e1c6964","625eee2950e63b48ec2efcd4","10","24361","","{""P0_Q0"":null,""ambiguous"":2,""objects"":2,""invisible"":2,""chaos"":3}","","","","","","","","","","","","","","","","","[]","Nearby location of Nakano Shirasagi Post Office (jp_tok-p_pos_a_3)","ChIJAX-SVZHtGGARmipALMOfEzw","35.7202777","139.6350482","JP","TOK","PER","POS","T&Ns, 2-chōme-37-3 Shirasagi, Nakano City, Tokyo 165-0035, Japan","jp_tok-p_pos_b_3","270","jp_tok-p_pos_b_3_270"
"trial","survey","46","1035535","0.0-2.0-44.0","60f7818f24735a8f072aec3a","625e209c10a247530e1c6964","625eee2950e63b48ec2efcd4","10","16036","","{""P0_Q0"":null,""ambiguous"":1,""objects"":2,""invisible"":1,""chaos"":1}","","","","","","","","","","","","","","","","","[]","Mandarin Oriental New York","MONYCMO1","40.7689","-73.98305","US","NYC","CTR","HTL","80  COLUMBUS CIRCLE AT 60TH STREET, NEW YORK, NY 10023","us_nyc-c_htl_a_ultra1","0","us_nyc-c_htl_a_ultra1_0"
"trial","survey","47","1049880","0.0-2.0-45.0","60f7818f24735a8f072aec3a","625e209c10a247530e1c6964","625eee2950e63b48ec2efcd4","10","14336","","{""P0_Q0"":null,""ambiguous"":2,""objects"":2,""invisible"":2,""chaos"":2}","","","","","","","","","","","","","","","","","[]","Nerima Sakuradai Post Office","ChIJazp3ghLtGGARuc0S6p6HeSM","35.7372339","139.6605353","JP","TOK","PER","POS","2-chōme-22-14 Toyotamakami, Nerima City, Tokyo 176-0011, Japan","jp_tok-p_pos_a_5","90","jp_tok-p_pos_a_5_90"
"trial","survey","48","1061443","0.0-2.0-46.0","60f7818f24735a8f072aec3a","625e209c10a247530e1c6964","625eee2950e63b48ec2efcd4","10","11556","","{""P0_Q0"":null,""ambiguous"":1,""objects"":1,""invisible"":1,""chaos"":1}","","","","","","","","","","","","","","","","","[]","Nearby location of Ann Arbor Christian School (us_arb_sch_a_2)","ChIJx979uW-tPIgRK2esjhwtDDE","42.352939","-83.7497999","US","ARB","ARB","SCH","5460 Whitmore Lake Rd, Ann Arbor, MI 48105, USA","us_arb_sch_b_2","270","us_arb_sch_b_2_270"
"trial","survey","49","1079646","0.0-2.0-47.0","60f7818f24735a8f072aec3a","625e209c10a247530e1c6964","625eee2950e63b48ec2efcd4","10","18196","","{""P0_Q0"":null,""ambiguous"":2,""objects"":3,""invisible"":1,""chaos"":3}","","","","","","","","","","","","","","","","","[]","Nearby location of INTERCONTINENTAL THE STRINGS (jp_tok-c_htl_a_mid2)","ChIJAb1kM0WKGGARue_1-lZ6ilo","35.6290559","139.7422638","JP","TOK","CTR","HTL","2-chōme-2-2-14 Kōnan, Minato City, Tokyo 108-0075, Japan","jp_tok-c_htl_b_mid2","90","jp_tok-c_htl_b_mid2_90"
"trial","survey","50","1096827","0.0-2.0-48.0","60f7818f24735a8f072aec3a","625e209c10a247530e1c6964","625eee2950e63b48ec2efcd4","10","17171","","{""P0_Q0"":null,""ambiguous"":1,""objects"":1,""invisible"":2,""chaos"":2}","","","","","","","","","","","","","","","","","[]","Mitsui Garden Kyobashi Tokyo","UITYOMGK","35.67906","139.77122","JP","TOK","CTR","HTL","1-3-6, KYOBASHI, CHUO-KU, TOKYO 1040031","jp_tok-c_htl_a_low2","0","jp_tok-c_htl_a_low2_0"
"trial","survey","51","1117647","0.0-2.0-49.0","60f7818f24735a8f072aec3a","625e209c10a247530e1c6964","625eee2950e63b48ec2efcd4","10","20809","","{""P0_Q0"":null,""ambiguous"":3,""objects"":1,""invisible"":1,""chaos"":1}","","","","","","","","","","","","","","","","","[]","Comfort Inn JFK Airport","CINYC672","40.66585","-73.80762","US","NYC","PER","HTL","132-15 NASSAU EXPRESSWAY, JAMAICA, NY 11430","us_nyc-p_htl_a_low2","180","us_nyc-p_htl_a_low2_180"
"trial","survey","52","1133469","0.0-2.0-50.0","60f7818f24735a8f072aec3a","625e209c10a247530e1c6964","625eee2950e63b48ec2efcd4","10","15810","","{""P0_Q0"":null,""ambiguous"":1,""objects"":2,""invisible"":1,""chaos"":1}","","","","","","","","","","","","","","","","","[]","Nearby location of Hotel JAL City Tokyo Toyosu (jp_tok-p_htl_a_mid1)","ChIJhxfMYB-JGGARzU1jFMgKRZ8","35.684968","139.8100484","JP","TOK","PER","HTL","1-chōme-1-7 Sarue, Koto City, Tokyo 135-0003, Japan","jp_tok-p_htl_b_mid1","270","jp_tok-p_htl_b_mid1_270"
"trial","survey","53","1145208","0.0-2.0-51.0","60f7818f24735a8f072aec3a","625e209c10a247530e1c6964","625eee2950e63b48ec2efcd4","10","11732","","{""P0_Q0"":null,""ambiguous"":1,""objects"":1,""invisible"":1,""chaos"":1}","","","","","","","","","","","","","","","","","[]","Nearby location of Ryōgoku Post Office (jp_tok-c_pos_a_5)","ChIJBRNSarKOGGARKk3b5BlK71s","35.696528","139.784235","JP","TOK","CTR","POS","Japan, 〒111-0053 Tokyo, Taito City, Asakusabashi, 1-chōme−2−８ 丸一ビル","jp_tok-c_pos_b_5","180","jp_tok-c_pos_b_5_180"
"trial","survey","54","1158036","0.0-2.0-52.0","60f7818f24735a8f072aec3a","625e209c10a247530e1c6964","625eee2950e63b48ec2efcd4","10","12818","","{""P0_Q0"":null,""ambiguous"":4,""objects"":2,""invisible"":3,""chaos"":3}","","","","","","","","","","","","","","","","","[]","Nearby location of United States Postal Service (us_nyc-p_pos_a_6)","ChIJ3R3ukfxEwokRG8NgRpaxZSY","40.6042186","-73.9781935","US","NYC","PER","POS","1776 W 5th St, Brooklyn, NY 11223, USA","us_nyc-p_pos_b_6","180","us_nyc-p_pos_b_6_180"
"trial","survey","55","1177047","0.0-2.0-53.0","60f7818f24735a8f072aec3a","625e209c10a247530e1c6964","625eee2950e63b48ec2efcd4","10","19003","","{""P0_Q0"":null,""ambiguous"":1,""objects"":1,""invisible"":1,""chaos"":2}","","","","","","","","","","","","","","","","","[]","Nearby location of TownePlace Suites by Marriott Ann Arbor (us_arb_htl_a_mid1)","ChIJ71gCcu-vPIgRi_B5Ob5B76o","42.2367203","-83.7509139","US","ARB","ARB","HTL","1126 Lariat Loop, Ann Arbor, MI 48108, USA","us_arb_htl_b_mid1","0","us_arb_htl_b_mid1_0"
"trial","survey","56","1192478","0.0-2.0-54.0","60f7818f24735a8f072aec3a","625e209c10a247530e1c6964","625eee2950e63b48ec2efcd4","10","15421","","{""P0_Q0"":null,""ambiguous"":1,""objects"":1,""invisible"":1,""chaos"":1}","","","","","","","","","","","","","","","","","[]","Nearby location of Rakuten STAY HOUSE×WILLSTYLE 八幡堀 (jp_hik_htl_a_high1)","ChIJ-fEvCXl5AWAR8xruOW8CYd0","35.1408592","136.0976484","JP","HIK","HIK","HTL","485-9 Tagachō, Omihachiman, Shiga 523-0821, Japan","jp_hik_htl_b_high1","180","jp_hik_htl_b_high1_180"
"trial","survey","57","1212373","0.0-2.0-55.0","60f7818f24735a8f072aec3a","625e209c10a247530e1c6964","625eee2950e63b48ec2efcd4","10","19887","","{""P0_Q0"":null,""ambiguous"":5,""objects"":2,""invisible"":3,""chaos"":3}","","","","","","","","","","","","","","","","","[]","豊島区立朝日小学校 ひいらぎ学級","ChIJtauqIoKNGGARrjSxFT4oZHo","35.741097","139.73295","JP","TOK","CTR","SCH","Japan, 〒170-0002 Tokyo, Toshima City, Sugamo, 5-chōme−33−１ 豊島区立朝日小学校","jp_tok-c_sch_a_2","0","jp_tok-c_sch_a_2_0"
"trial","survey","58","1225690","0.0-2.0-56.0","60f7818f24735a8f072aec3a","625e209c10a247530e1c6964","625eee2950e63b48ec2efcd4","10","13310","","{""P0_Q0"":null,""ambiguous"":4,""objects"":1,""invisible"":2,""chaos"":2}","","","","","","","","","","","","","","","","","[]","3rd Haketa Elementary School","ChIJ-R1gr2OOGGARBama0y6Aw5k","35.733569","139.78608","JP","TOK","PER","SCH","1-chōme-43-1 Arakawa, Arakawa City, Tokyo 116-0002, Japan","jp_tok-p_sch_a_1","90","jp_tok-p_sch_a_1_90"
"trial","survey","59","1241272","0.0-2.0-57.0","60f7818f24735a8f072aec3a","625e209c10a247530e1c6964","625eee2950e63b48ec2efcd4","10","15574","","{""P0_Q0"":null,""ambiguous"":1,""objects"":3,""invisible"":1,""chaos"":1}","","","","","","","","","","","","","","","","","[]","United States Postal Service","ChIJS0NV70lawokRJtOpGTdtCiU","40.6959073","-73.9899798","US","NYC","PER","POS","271 Cadman Plaza E Ste 2, Brooklyn, NY 11201, USA","us_nyc-p_pos_a_4","90","us_nyc-p_pos_a_4_90"
"trial","survey","60","1268142","0.0-2.0-58.0","60f7818f24735a8f072aec3a","625e209c10a247530e1c6964","625eee2950e63b48ec2efcd4","10","26862","","{""P0_Q0"":null,""ambiguous"":2,""objects"":4,""invisible"":3,""chaos"":3}","","","","","","","","","","","","","","","","","[]","Léman Manhattan Preparatory School","ChIJ1R3juBZawokRy34rGleDCJs","40.7060686","-74.0140159","US","NYC","CTR","SCH","1 Morris St, New York, NY 10004, USA","us_nyc-c_sch_a_8","270","us_nyc-c_sch_a_8_270"
"trial","survey","61","1284881","0.0-2.0-59.0","60f7818f24735a8f072aec3a","625e209c10a247530e1c6964","625eee2950e63b48ec2efcd4","10","16729","","{""P0_Q0"":null,""ambiguous"":3,""objects"":3,""invisible"":2,""chaos"":4}","","","","","","","","","","","","","","","","","[]","Setagaya Okamoto Post Office","ChIJU6mt5gf0GGARS1eqIkjSKT4","35.6261891","139.6194159","JP","TOK","PER","POS","1-chōme-30-7 Okamoto, Setagaya City, Tokyo 157-0076, Japan","jp_tok-p_pos_a_1","270","jp_tok-p_pos_a_1_270"
"trial","survey","62","1331487","0.0-2.0-60.0","60f7818f24735a8f072aec3a","625e209c10a247530e1c6964","625eee2950e63b48ec2efcd4","10","46597","","{""P0_Q0"":null,""ambiguous"":4,""objects"":4,""invisible"":3,""chaos"":4}","","","","","","","","","","","","","","","","","[]","Nearby location of Waseda Daigaku-mae Post Office (jp_hik_pos_a_4)","ChIJ3fFikwKNGGARdbidMhgiTgs","35.7066137","139.7233789","JP","HIK","HIK","POS","508 Wasedatsurumakichō, Shinjuku City, Tokyo 162-0041, Japan","jp_hik_pos_b_4","0","jp_hik_pos_b_4_0"
"trial","survey","63","1348126","0.0-2.0-61.0","60f7818f24735a8f072aec3a","625e209c10a247530e1c6964","625eee2950e63b48ec2efcd4","10","16630","","{""P0_Q0"":null,""ambiguous"":1,""objects"":5,""invisible"":1,""chaos"":2}","","","","","","","","","","","","","","","","","[]","The Hoxton Williamsburg","WVNYC801","40.7207","-73.95876","US","NYC","PER","HTL","97 WYTHE AVENUE, NEW YORK, NY 11249","us_nyc-p_htl_a_high2","0","us_nyc-p_htl_a_high2_0"
"trial","survey","64","1363147","0.0-2.0-62.0","60f7818f24735a8f072aec3a","625e209c10a247530e1c6964","625eee2950e63b48ec2efcd4","10","15010","","{""P0_Q0"":null,""ambiguous"":1,""objects"":2,""invisible"":1,""chaos"":1}","","","","","","","","","","","","","","","","","[]","TownePlace Suites by Marriott Ann Arbor","TOARBTPT","42.23796","-83.74932","US","ARB","ARB","HTL","1301 BRIARWOOD CIRCLE DR, ANN ARBOR, MI 48108","us_arb_htl_a_mid1","180","us_arb_htl_a_mid1_180"
"trial","survey","65","1378477","0.0-2.0-63.0","60f7818f24735a8f072aec3a","625e209c10a247530e1c6964","625eee2950e63b48ec2efcd4","10","15323","","{""P0_Q0"":null,""ambiguous"":1,""objects"":4,""invisible"":2,""chaos"":3}","","","","","","","","","","","","","","","","","[]","The Pearl NYC","XTLGATPH","40.76144","-73.98553","US","NYC","CTR","HTL","233 W 49TH ST, NEW YORK, NY 10019","us_nyc-c_htl_a_high1","270","us_nyc-c_htl_a_high1_270"
"trial","survey","66","1397861","0.0-2.0-64.0","60f7818f24735a8f072aec3a","625e209c10a247530e1c6964","625eee2950e63b48ec2efcd4","10","19377","","{""P0_Q0"":null,""ambiguous"":1,""objects"":3,""invisible"":3,""chaos"":3}","","","","","","","","","","","","","","","","","[]","Mukaihara Elementary School","ChIJr51ciUjtGGARi9CcLnWMRwg","35.7416333","139.6818636","JP","TOK","PER","SCH","2-chōme-34-1 Mukaihara, Itabashi City, Tokyo 173-0036, Japan","jp_tok-p_sch_a_4","270","jp_tok-p_sch_a_4_270"
"trial","survey","67","1410228","0.0-2.0-65.0","60f7818f24735a8f072aec3a","625e209c10a247530e1c6964","625eee2950e63b48ec2efcd4","10","12360","","{""P0_Q0"":null,""ambiguous"":1,""objects"":1,""invisible"":1,""chaos"":1}","","","","","","","","","","","","","","","","","[]","Nagahama Shiritsu Torahime Elementary School","ChIJWVB8Ap8oAmARFLmHXCq8zOo","35.4207316","136.2639813","JP","TOR","TOR","SCH","88 Gomura, Nagahama, Shiga 529-0141, Japan","jp_tor_sch_a_1","0","jp_tor_sch_a_1_0"
"trial","survey","68","1431596","0.0-2.0-66.0","60f7818f24735a8f072aec3a","625e209c10a247530e1c6964","625eee2950e63b48ec2efcd4","10","21361","","{""P0_Q0"":null,""ambiguous"":1,""objects"":1,""invisible"":1,""chaos"":1}","","","","","","","","","","","","","","","","","[]","United States Postal Service","ChIJ-z0tqtinPIgRRFOwdMC_IJo","42.2168766","-83.6200448","US","ARB","ARB","POS","1606 S Huron St, Ypsilanti, MI 48197, USA","us_arb_pos_a_3","0","us_arb_pos_a_3_0"
"trial","survey","69","1460957","0.0-2.0-67.0","60f7818f24735a8f072aec3a","625e209c10a247530e1c6964","625eee2950e63b48ec2efcd4","10","29354","","{""P0_Q0"":null,""ambiguous"":2,""objects"":3,""invisible"":2,""chaos"":4}","","","","","","","","","","","","","","","","","[]","USPS Bayside Carrier Annex","ChIJKfnG5OFhwokRDpTOYU_3G4g","40.7633707","-73.7662444","US","NYC","PER","POS","41-29 216th St, Bayside, NY 11361, USA","us_nyc-p_pos_a_1","180","us_nyc-p_pos_a_1_180"
"trial","survey","70","1475164","0.0-2.0-68.0","60f7818f24735a8f072aec3a","625e209c10a247530e1c6964","625eee2950e63b48ec2efcd4","10","14198","","{""P0_Q0"":null,""ambiguous"":2,""objects"":2,""invisible"":2,""chaos"":5}","","","","","","","","","","","","","","","","","[]","Nearby location of Ōmori Bellport Post Office (jp_hik_pos_a_2)","ChIJ7Ywa2cxhGGARziYl93kj-_E","35.5874802","139.7328359","JP","HIK","HIK","POS","3-chōme-35-8 Minamiōi, Shinagawa City, Tokyo 140-0013, Japan","jp_hik_pos_b_2","270","jp_hik_pos_b_2_270"
"trial","survey","71","1487605","0.0-2.0-69.0","60f7818f24735a8f072aec3a","625e209c10a247530e1c6964","625eee2950e63b48ec2efcd4","10","12431","","{""P0_Q0"":null,""ambiguous"":1,""objects"":2,""invisible"":2,""chaos"":1}","","","","","","","","","","","","","","","","","[]","Nearby location of United States Postal Service (us_nyc-p_pos_a_5)","ChIJAxFT_p70wokRYeihFIw0wFU","40.8546215","-73.8685765","US","NYC","PER","POS","625 Lydig Ave, Bronx, NY 10462, USA","us_nyc-p_pos_b_5","0","us_nyc-p_pos_b_5_0"
"trial","survey","72","1501645","0.0-2.0-70.0","60f7818f24735a8f072aec3a","625e209c10a247530e1c6964","625eee2950e63b48ec2efcd4","10","14033","","{""P0_Q0"":null,""ambiguous"":3,""objects"":3,""invisible"":3,""chaos"":3}","","","","","","","","","","","","","","","","","[]","United States Postal Service","ChIJIRvhvPqJwokRje-X_pYcWug","40.7684345","-73.7370948","US","NYC","PER","POS","25010 Northern Blvd, Queens, NY 11362, USA","us_nyc-p_pos_a_2","180","us_nyc-p_pos_a_2_180"
"trial","survey","73","1516253","0.0-2.0-71.0","60f7818f24735a8f072aec3a","625e209c10a247530e1c6964","625eee2950e63b48ec2efcd4","10","14600","","{""P0_Q0"":null,""ambiguous"":1,""objects"":3,""invisible"":1,""chaos"":3}","","","","","","","","","","","","","","","","","[]","Ann Arbor Christian School","ChIJ1SluE2-tPIgR2t57M0S5d6M","42.354132","-83.750108","US","ARB","ARB","SCH","5500 Whitmore Lake Rd, Ann Arbor, MI 48105, USA","us_arb_sch_a_2","90","us_arb_sch_a_2_90"
"trial","survey","74","1529113","0.0-2.0-72.0","60f7818f24735a8f072aec3a","625e209c10a247530e1c6964","625eee2950e63b48ec2efcd4","10","12851","","{""P0_Q0"":null,""ambiguous"":1,""objects"":1,""invisible"":1,""chaos"":1}","","","","","","","","","","","","","","","","","[]","Jittered SV for Nearby location of Hotel Villa Fontaine Nihombashi-Hakozaki (jp_tok-c_htl_a_low1) (jp_tok-c_htl_b_low1)","ChIJcZnDxKeJGGARHOldLPKzIl8","35.6825421","139.7856265","JP","TOK","CTR","HTL","Japan, 〒103-0014 Tokyo, Chuo City, Nihonbashikakigarachō, 2-chōme−2−２ 関口ビル","jp_tok-c_htl_b_low1","90","jp_tok-c_htl_b_low1_90"
"trial","survey","75","1551630","0.0-2.0-73.0","60f7818f24735a8f072aec3a","625e209c10a247530e1c6964","625eee2950e63b48ec2efcd4","10","22509","","{""P0_Q0"":null,""ambiguous"":3,""objects"":2,""invisible"":2,""chaos"":4}","","","","","","","","","","","","","","","","","[]","Nearby location of Nakano Shirasagi Post Office (jp_tok-p_pos_a_3)","ChIJAX-SVZHtGGARmipALMOfEzw","35.7202777","139.6350482","JP","TOK","PER","POS","T&Ns, 2-chōme-37-3 Shirasagi, Nakano City, Tokyo 165-0035, Japan","jp_tok-p_pos_b_3","180","jp_tok-p_pos_b_3_180"
"trial","survey","76","1570075","0.0-2.0-74.0","60f7818f24735a8f072aec3a","625e209c10a247530e1c6964","625eee2950e63b48ec2efcd4","10","18435","","{""P0_Q0"":null,""ambiguous"":3,""objects"":3,""invisible"":3,""chaos"":3}","","","","","","","","","","","","","","","","","[]","United States Postal Service","ChIJZSVRGDq7PIgRlo_a8I0Tib8","42.1718067","-83.7735227","US","ARB","ARB","POS","108 N Maple Rd, Saline, MI 48176, USA","us_arb_pos_a_1","0","us_arb_pos_a_1_0"
"trial","survey","77","1584843","0.0-2.0-75.0","60f7818f24735a8f072aec3a","625e209c10a247530e1c6964","625eee2950e63b48ec2efcd4","10","14758","","{""P0_Q0"":null,""ambiguous"":1,""objects"":3,""invisible"":1,""chaos"":3}","","","","","","","","","","","","","","","","","[]","Nearby location of Katsushika Higashishinkoiwa Post Office (jp_tok-p_pos_a_6)","ChIJa0TdeweGGGAR0TN6A1BsN_Y","35.7240323","139.8620652","JP","TOK","PER","POS","3-chōme-15-6 Higashishinkoiwa, Katsushika City, Tokyo 124-0023, Japan","jp_tok-p_pos_b_6","90","jp_tok-p_pos_b_6_90"
"trial","survey","78","1595467","0.0-2.0-76.0","60f7818f24735a8f072aec3a","625e209c10a247530e1c6964","625eee2950e63b48ec2efcd4","10","10616","","{""P0_Q0"":null,""ambiguous"":3,""objects"":3,""invisible"":3,""chaos"":3}","","","","","","","","","","","","","","","","","[]","INTERCONTINENTAL THE STRINGS","ICTYOSTR","35.62791","139.74075","JP","TOK","CTR","HTL","26 32 F SHINAGAWA EAST ONE TWR 2 16 1 KONAN, TOKYO 108 8282","jp_tok-c_htl_a_mid2","90","jp_tok-c_htl_a_mid2_90"
"demographics","survey-html-form","79","1607025","0.0-2.0-77.0","60f7818f24735a8f072aec3a","625e209c10a247530e1c6964","625eee2950e63b48ec2efcd4","10","11556","","{""age"":""43"",""gender"":""female"",""gender-self-describe"":"""",""zipcode"":""35763""}","","","","","","","","","","","","","","","","","","","","","","","","","","","","",""
"demographics","survey","80","1612197","0.0-2.0-78.0","60f7818f24735a8f072aec3a","625e209c10a247530e1c6964","625eee2950e63b48ec2efcd4","10","5154","","{""P0_Q0"":null,""outsideUS"":""No"",""outsideUS_years"":""""}","","","","","","","","","","","","","","","","","[]","","","","","","","","","","","",""
"end-survey","survey-text","81","1621635","0.0-2.0-79.0","60f7818f24735a8f072aec3a","625e209c10a247530e1c6964","625eee2950e63b48ec2efcd4","10","9423","","{""Q0"":""not at this time.""}","","","","","","","","","","","","","","","","","","","","","","","","","","","","",""
