"task","trial_type","trial_index","time_elapsed","internal_node_id","subject_id","study_id","session_id","group","rt","stimulus","response","width","height","webaudio","browser","browser_version","mobile","os","fullscreen","vsync_rate","webcam","microphone","success","timeout","failed_images","failed_audio","failed_video","accuracy","name","place_id","lat","lng","culture","loc1","loc2","loct","address","loc_id_prev","angle","loc_id"
"pavlovia-init","pavlovia","0","2217","0.0-0.0","61002eec687786ee42e7997a","625e209c10a247530e1c6964","625ef1df305b38736a153b14","4","","","","","","","","","","","","","","","","","","","","","","","","","","","","","","","",""
"consent","html-button-response","1","23116","0.0-1.0","61002eec687786ee42e7997a","625e209c10a247530e1c6964","625ef1df305b38736a153b14","4","20895","
        <div style=""font-size: 80%; max-width:700px"">
            <h2>Informed Consent</h2><br>
        
            <div style=""text-align: left"">
            <h3>Streetscape Perceptions</h3>
            <b>HUM00189138</b>
            <br><hr>
        
            <h4>DESCRIPTION</h4>
            <p>
                In this study, you will view Google Street View images. You will then answer questions about your impressions of the streetscapes presented in those images.
            </p><br>
        
            <h4>TIME INVOLVEMENT</h4>
            <p>Your participation will take approximately 30 minutes.</p><br>
        
            <h4>RISKS AND BENEFITS</h4>
            <p>
                The risks associated with this study are minimal. The benefits which may reasonably be expected to result from this study are none.  We cannot and do not guarantee or promise that you will receive any benefits from this study. 
            </p><br>
        
            <h4>PAYMENTS</h4>
            <p>You will be paid <b>$5.00</b> for your participation.</p><br>
        
            <h4>SUBJECT'S RIGHTS</h4>
            <p>
                If you have read this form and have decided to participate in this project, please understand your participation is voluntary and you have the right to withdraw your consent or discontinue participation at any time without penalty or loss of benefits to which you are otherwise entitled.  The alternative is not to participate.  You have the right to refuse to answer particular questions.  
            </p>
        
            <p>
                Your individual privacy will be maintained in all published and written data resulting from the study. Your responses will be kept confidential: you are given a participant code, and no one, not even the research team, can match that code with your identity. Your collected information may also be shared with other researchers as part of our dataset.
            </p><br>
        
            <h4>CONTACT INFORMATION</h4>
            <p>
                Questions: If you have any questions, concerns or complaints about this research, its procedures, risks and benefits, contact the Protocol Director, Nicholas Camp, npcamp@umich.edu, (443) 851-6783.
            </p>
        
            <p>
                If you have questions about your rights as a research participant, or wish to obtain information, ask questions or discuss any concerns about this study with someone other than the researcher(s), please contact the following:
                <br><br>
        
                University of Michigan<br>
                Health Sciences and Behavioral Sciences Institutional Review Board
                (IRB-HSBS)<br>
                2800 Plymouth Road <br>
                Building 520, Room 1169 <br>
                Ann Arbor, MI 48109-2800 <br>
                Telephone: 734-936-0933 or toll free (866) 936-0933 <br>
                Fax: 734-936-1852 <br />
                E-mail: irbhsbs@umich.edu <br>
            </p>
        
            <p>
                You can also contact the University of Michigan Compliance Hotline at 1-866-990-0111. You may also print this consent form to keep.
            </p>
            <br>
        
            <div class=""alert alert-warning""><b>
                Do you consent to participate in this study? If you consent to participate in this study, please click “Accept and continue.”
            </b></div>
            </div>
        </div>
    ","1","","","","","","","","","","","","","","","","","","","","","","","","","","","","",""
"browser-check","browser-check","2","24125","0.0-2.0-0.0","61002eec687786ee42e7997a","625e209c10a247530e1c6964","625ef1df305b38736a153b14","4","","","","980","1708","true","ios","15.3.0","true","iOS","false","60.24","true","true","","","","","","","","","","","","","","","","","",""
"","preload","3","25989","0.0-2.0-1.0","61002eec687786ee42e7997a","625e209c10a247530e1c6964","625ef1df305b38736a153b14","4","","","","","","","","","","","","","","","true","false","[]","[]","[]","","","","","","","","","","","","",""
"instructions","html-button-response","4","37861","0.0-2.0-2.0","61002eec687786ee42e7997a","625e209c10a247530e1c6964","625ef1df305b38736a153b14","4","11868","
        <div class=""text-container"">
            <h1>Welcome to the study!</h1>
            
            <div class=""text-left"">
                <p>
                    In this study, we are interested in how people think about different Google Street View images. Google Street View takes pictures of streets used for Google Earth and Google Maps. You’ll see Google Street View images of different places and answer some questions about each one.
                </p>
            </div>
            
            <img src='
            https://maps.googleapis.com/maps/api/streetview?size=640x320
            &location=37.783631,-122.432766
            &heading=80
            &pitch=2
            &fov=100
            &radius=150
            &key=AIzaSyC2OxRDg6qlzZDj7j0UAD2XyE0qWokLvvs
            &source=outdoor'>
        
            <br>
        <br>
    ","0","","","","","","","","","","","","","","","","","","","","","","","","","","","","",""
"instructions","html-button-response","5","85936","0.0-2.0-3.0","61002eec687786ee42e7997a","625e209c10a247530e1c6964","625ef1df305b38736a153b14","4","47773","
        <style>
            img.small {
            max-width: 100px;
            }
            li {
            text-indent: 40px;
            }
        </style>

        <div class=""text-container text-left"">
            <p>For each picture, we’d like your impressions of the scene:</p>
            
            <hr>
                Are there <b>clear, distinct boundaries</b> between objects in the scene, or are the <b>boundaries ambiguous or unclear</b>?
                
                <li>clear, distinct boundaries: <img class=""small"" src=""assets/img/ambiguous-low.png""></li>
                <li>ambiguous or unclear boundaries: <img class=""small"" src=""assets/img/ambiguous-high.png""></li>
            <hr>
            <br>
                Are there <b>only a few different objects</b> in the scene, or is there <b>a large number</b>?
            <br><br>
            <hr>
                Are only <b>a few parts</b> of the scene <b>invisible or obscured</b>, or are <b>many parts invisible or obscured</b>?
                
                <li>a few parts invisible or obscured: <img class=""small"" src=""assets/img/invisible-low.png""></li>
                <li>many parts invisible or obscured: <img class=""small"" src=""assets/img/invisible-high.png""></li>
            <hr>
            <br>
                Does the scene look <b>organized</b> or <b>chaotic</b> to you?
            <br><br>
            <hr>
            
            <p>
                There are no right or wrong answers: we are interested in <b>your</b> impression. Note that some images might have individual buildings or faces blurred for privacy. Please ignore these when making your judgments.
            </p>
        </div>
        <br>
    ","0","","","","","","","","","","","","","","","","","","","","","","","","","","","","",""
"instructions","html-button-response","6","94016","0.0-2.0-4.0","61002eec687786ee42e7997a","625e209c10a247530e1c6964","625ef1df305b38736a153b14","4","8083","
        <div class=""text-container text-left"">
            <p>Please make sure you are doing this study in an area where you can focus and complete the survey in one sitting.</p>

            <p>Don’t spend too much time on any one picture, and, again go with your gut impression!</p>
            
            <p>The study should take about 30 minutes. We’ll let you know when you’re halfway through.</p>
        </div>
            
        <h3>Ready? Click next to get started!</h3>
        <br>
    ","0","","","","","","","","","","","","","","","","","","","","","","","","","","","","",""
"trial","survey","7","133520","0.0-2.0-5.0","61002eec687786ee42e7997a","625e209c10a247530e1c6964","625ef1df305b38736a153b14","4","39434","","{""P0_Q0"":null,""ambiguous"":4,""objects"":5,""invisible"":2,""chaos"":3}","","","","","","","","","","","","","","","","","[]","Multicultural Academy","ChIJKdawbZOlPIgRLE8l7DLN_lo","42.20752","-83.700335","US","ARB","ARB","SCH","5550 Platt Rd, Ann Arbor, MI 48108, USA","us_arb_sch_a_3","180","us_arb_sch_a_3_180"
"trial","survey","8","172402","0.0-2.0-6.0","61002eec687786ee42e7997a","625e209c10a247530e1c6964","625ef1df305b38736a153b14","4","38862","","{""P0_Q0"":null,""ambiguous"":4,""objects"":3,""invisible"":4,""chaos"":4}","","","","","","","","","","","","","","","","","[]","Toshima Minami-Nagasaki Post Office","ChIJjbRx2KnyGGARYqMHBr_HSX0","35.7264975","139.6842311","JP","TOK","CTR","POS","4-chōme-27-5 Minaminagasaki, Toshima City, Tokyo 171-0052, Japan","jp_tok-c_pos_a_4","270","jp_tok-c_pos_a_4_270"
"trial","survey","9","205606","0.0-2.0-7.0","61002eec687786ee42e7997a","625e209c10a247530e1c6964","625ef1df305b38736a153b14","4","33182","","{""P0_Q0"":null,""ambiguous"":2,""objects"":2,""invisible"":2,""chaos"":2}","","","","","","","","","","","","","","","","","[]","Nearby location of Torahime Post Office (jp_tor_pos_a_1)","ChIJgxpx9J4oAmARIkc4T1H6KS0","35.420504","136.263204","JP","TOR","TOR","POS","171-3 Gomura, Nagahama, Shiga 529-0141, Japan","jp_tor_pos_b_1","90","jp_tor_pos_b_1_90"
"trial","survey","10","233646","0.0-2.0-8.0","61002eec687786ee42e7997a","625e209c10a247530e1c6964","625ef1df305b38736a153b14","4","28018","","{""P0_Q0"":null,""ambiguous"":4,""objects"":4,""invisible"":4,""chaos"":2}","","","","","","","","","","","","","","","","","[]","Katsushika City Iizuka Elementary School","ChIJXWuTk2CFGGARG2Rud6f0E18","35.7767025","139.8582864","JP","TOK","PER","SCH","1-chōme-13-1 Minamimizumoto, Katsushika City, Tokyo 125-0035, Japan","jp_tok-p_sch_a_3","180","jp_tok-p_sch_a_3_180"
"trial","survey","11","256632","0.0-2.0-9.0","61002eec687786ee42e7997a","625e209c10a247530e1c6964","625ef1df305b38736a153b14","4","22970","","{""P0_Q0"":null,""ambiguous"":4,""objects"":2,""invisible"":2,""chaos"":3}","","","","","","","","","","","","","","","","","[]","Jittered SV for Nearby location of 須賀谷温泉 (jp_tor_htl_a_high1) (jp_tor_htl_b_high1)","GhIJIiaXtQO6QUARjDUSVwQJYUA","35.4532382","136.2817798","JP","TOR","TOR","HTL","F73J+7P Nagahama, Shiga, Japan","jp_tor_htl_b_high1","0","jp_tor_htl_b_high1_0"
"trial","survey","12","278630","0.0-2.0-10.0","61002eec687786ee42e7997a","625e209c10a247530e1c6964","625ef1df305b38736a153b14","4","21978","","{""P0_Q0"":null,""ambiguous"":4,""objects"":3,""invisible"":4,""chaos"":2}","","","","","","","","","","","","","","","","","[]","Nearby location of Higashi-Asakusa Elementary School (jp_tok-c_sch_a_8)","ChIJAytTi-2OGGARfOL1JBbMOoM","35.725672","139.7971627","JP","TOK","CTR","SCH","Japan, 〒111-0021 Tokyo, Taito City, Nihonzutsumi, 1-chōme−31−２ 平乃屋","jp_tok-c_sch_b_8","180","jp_tok-c_sch_b_8_180"
"trial","survey","13","310258","0.0-2.0-11.0","61002eec687786ee42e7997a","625e209c10a247530e1c6964","625ef1df305b38736a153b14","4","31611","","{""P0_Q0"":null,""ambiguous"":2,""objects"":3,""invisible"":4,""chaos"":2}","","","","","","","","","","","","","","","","","[]","Hotel Route-Inn Nagahama Inter","ChIJmQLsstAuAmARAC8tYd9WWwc","35.3970578","136.2947216","JP","TOR","TOR","HTL","Japan, 〒526-0804 Shiga, Nagahama, Kanōchō, 字上角田884-1","jp_tor_htl_a_low1","90","jp_tor_htl_a_low1_90"
"trial","survey","14","329558","0.0-2.0-12.0","61002eec687786ee42e7997a","625e209c10a247530e1c6964","625ef1df305b38736a153b14","4","19280","","{""P0_Q0"":null,""ambiguous"":2,""objects"":4,""invisible"":4,""chaos"":4}","","","","","","","","","","","","","","","","","[]","United States Postal Service","ChIJb5pfwxb2wokR4-EvJ1w0znA","40.8036447","-73.9541827","US","NYC","CTR","POS","232 W 116th St, New York, NY 10026, USA","us_nyc-c_pos_a_7","270","us_nyc-c_pos_a_7_270"
"trial","survey","15","366679","0.0-2.0-13.0","61002eec687786ee42e7997a","625e209c10a247530e1c6964","625ef1df305b38736a153b14","4","37102","","{""P0_Q0"":null,""ambiguous"":2,""objects"":2,""invisible"":4,""chaos"":3}","","","","","","","","","","","","","","","","","[]","Nearby location of Sakata Elementary School (jp_hik_sch_a_4)","ChIJBzK5RHYsAmARdmisGXiOTX0","35.3390583","136.2876793","JP","HIK","HIK","SCH","528 Ukano, Maibara, Shiga 521-0062, Japan","jp_hik_sch_b_4","270","jp_hik_sch_b_4_270"
"trial","survey","16","396698","0.0-2.0-14.0","61002eec687786ee42e7997a","625e209c10a247530e1c6964","625ef1df305b38736a153b14","4","29999","","{""P0_Q0"":null,""ambiguous"":3,""objects"":3,""invisible"":3,""chaos"":2}","","","","","","","","","","","","","","","","","[]","Nearby location of The Pearl NYC (us_nyc-c_htl_a_high1)","ChIJH25PJ-dZwokRj_-5BHZLdE0","40.7600987","-73.9843757","US","NYC","CTR","HTL","1596 Broadway, New York, NY 10019, USA","us_nyc-c_htl_b_high1","0","us_nyc-c_htl_b_high1_0"
"trial","survey","17","460209","0.0-2.0-15.0","61002eec687786ee42e7997a","625e209c10a247530e1c6964","625ef1df305b38736a153b14","4","63492","","{""P0_Q0"":null,""ambiguous"":3,""objects"":4,""invisible"":1,""chaos"":2}","","","","","","","","","","","","","","","","","[]","United States Postal Service","ChIJb5pfwxb2wokR4-EvJ1w0znA","40.8036447","-73.9541827","US","NYC","CTR","POS","232 W 116th St, New York, NY 10026, USA","us_nyc-c_pos_a_7","180","us_nyc-c_pos_a_7_180"
"trial","survey","18","484668","0.0-2.0-16.0","61002eec687786ee42e7997a","625e209c10a247530e1c6964","625ef1df305b38736a153b14","4","24439","","{""P0_Q0"":null,""ambiguous"":1,""objects"":3,""invisible"":2,""chaos"":1}","","","","","","","","","","","","","","","","","[]","Nearby location of Quality Inn and Suites Ann Arbor Hwy 23 (us_arb_htl_a_mid2)","ChIJUf9k3i2vPIgRY6-MziLWsGc","42.25094","-83.682429","US","ARB","ARB","HTL","2525 Gross Rd, Ann Arbor, MI 48108, USA","us_arb_htl_b_mid2","90","us_arb_htl_b_mid2_90"
"trial","survey","19","503580","0.0-2.0-17.0","61002eec687786ee42e7997a","625e209c10a247530e1c6964","625ef1df305b38736a153b14","4","18896","","{""P0_Q0"":null,""ambiguous"":1,""objects"":1,""invisible"":1,""chaos"":1}","","","","","","","","","","","","","","","","","[]","Quality Inn and Suites Ann Arbor Hwy 23","QIARB356","42.25224","-83.68168","US","ARB","ARB","HTL","2376 CARPENTER ROAD, ANN ARBOR, MI 48018","us_arb_htl_a_mid2","270","us_arb_htl_a_mid2_270"
"trial","survey","20","537812","0.0-2.0-18.0","61002eec687786ee42e7997a","625e209c10a247530e1c6964","625ef1df305b38736a153b14","4","34215","","{""P0_Q0"":null,""ambiguous"":2,""objects"":2,""invisible"":2,""chaos"":2}","","","","","","","","","","","","","","","","","[]","Nearby location of Guidepost Montessori at Museum Mile (us_nyc-c_sch_a_7)","ChIJMU401IBZwokRBiUiZCbwkh0","40.7774782","-73.9615352","US","NYC","CTR","SCH","1070 Madison Ave, New York, NY 10028, USA","us_nyc-c_sch_b_7","180","us_nyc-c_sch_b_7_180"
"trial","survey","21","566285","0.0-2.0-19.0","61002eec687786ee42e7997a","625e209c10a247530e1c6964","625ef1df305b38736a153b14","4","28456","","{""P0_Q0"":null,""ambiguous"":2,""objects"":3,""invisible"":3,""chaos"":2}","","","","","","","","","","","","","","","","","[]","Nearby location of Katsushika City Iizuka Elementary School (jp_tok-p_sch_a_3)","ChIJ1_4-r2CFGGARraiLOcCqmco","35.7780152","139.8593261","JP","TOK","PER","SCH","Japan, 〒125-0035 Tokyo, Katsushika City, Minamimizumoto, 2-chōme−28−１６ セブンツークラッシックマンション","jp_tok-p_sch_b_3","90","jp_tok-p_sch_b_3_90"
"trial","survey","22","587901","0.0-2.0-20.0","61002eec687786ee42e7997a","625e209c10a247530e1c6964","625ef1df305b38736a153b14","4","21598","","{""P0_Q0"":null,""ambiguous"":3,""objects"":2,""invisible"":3,""chaos"":3}","","","","","","","","","","","","","","","","","[]","Nearby location of Baymont by Wyndham Chelsea (us_chl_htl_a_mid1)","ChIJPR5PbrjOPIgRniUqQCWoPWs","42.298341","-84.0291029","US","CHL","CHL","HTL","1620 Commerce Park Dr suite 100, Chelsea, MI 48118, USA","us_chl_htl_b_mid1","90","us_chl_htl_b_mid1_90"
"trial","survey","23","611409","0.0-2.0-21.0","61002eec687786ee42e7997a","625e209c10a247530e1c6964","625ef1df305b38736a153b14","4","23491","","{""P0_Q0"":null,""ambiguous"":2,""objects"":2,""invisible"":1,""chaos"":1}","","","","","","","","","","","","","","","","","[]","Nearby location of The Williamsburg Hotel (us_nyc-p_htl_a_high1)","ChIJH00_Y11ZwokR19006V8VF7Q","40.7203468","-73.9589785","US","NYC","PER","HTL","84 N 9th St, Brooklyn, NY 11249, USA","us_nyc-p_htl_b_high1","180","us_nyc-p_htl_b_high1_180"
"trial","survey","24","633778","0.0-2.0-22.0","61002eec687786ee42e7997a","625e209c10a247530e1c6964","625ef1df305b38736a153b14","4","22351","","{""P0_Q0"":null,""ambiguous"":4,""objects"":3,""invisible"":2,""chaos"":3}","","","","","","","","","","","","","","","","","[]","Nearby location of The Westin Tokyo (jp_tok-p_htl_a_high2)","ChIJrVZsu8CLGGARMYSk3wOv6Fk","35.6401336","139.7167882","JP","TOK","PER","HTL","Japan, 〒141-0021 Tokyo, Shinagawa City, Kamiōsaki, 2-chōme−3−３０ イトーピア長者丸ＩＤＥＡ","jp_tok-p_htl_b_high2","0","jp_tok-p_htl_b_high2_0"
"trial","survey","25","654076","0.0-2.0-23.0","61002eec687786ee42e7997a","625e209c10a247530e1c6964","625ef1df305b38736a153b14","4","20282","","{""P0_Q0"":null,""ambiguous"":3,""objects"":4,""invisible"":3,""chaos"":2}","","","","","","","","","","","","","","","","","[]","Adahi Sano Post Office","ChIJuYxTuuOPGGAREn1yJl24fbw","35.7864794","139.8411136","JP","HIK","HIK","POS","2-chōme-11-12 Sano, Adachi City, Tokyo 121-0053, Japan","jp_hik_pos_a_3","0","jp_hik_pos_a_3_0"
"trial","survey","26","673432","0.0-2.0-24.0","61002eec687786ee42e7997a","625e209c10a247530e1c6964","625ef1df305b38736a153b14","4","19342","","{""P0_Q0"":null,""ambiguous"":3,""objects"":3,""invisible"":2,""chaos"":1}","","","","","","","","","","","","","","","","","[]","United States Postal Service","ChIJZSVRGDq7PIgRlo_a8I0Tib8","42.1718067","-83.7735227","US","ARB","ARB","POS","108 N Maple Rd, Saline, MI 48176, USA","us_arb_pos_a_1","270","us_arb_pos_a_1_270"
"trial","survey","27","691716","0.0-2.0-25.0","61002eec687786ee42e7997a","625e209c10a247530e1c6964","625ef1df305b38736a153b14","4","18268","","{""P0_Q0"":null,""ambiguous"":2,""objects"":2,""invisible"":2,""chaos"":2}","","","","","","","","","","","","","","","","","[]","Torahime Post Office","ChIJAzu1m54oAmARzqXxALkD3FY","35.4195711","136.2622481","JP","TOR","TOR","POS","160-5 Gomura, Nagahama, Shiga 529-0141, Japan","jp_tor_pos_a_1","180","jp_tor_pos_a_1_180"
"trial","survey","28","709610","0.0-2.0-26.0","61002eec687786ee42e7997a","625e209c10a247530e1c6964","625ef1df305b38736a153b14","4","17874","","{""P0_Q0"":null,""ambiguous"":4,""objects"":3,""invisible"":4,""chaos"":4}","","","","","","","","","","","","","","","","","[]","Nearby location of Yonehara Shiritsu Yonehara Elementary School (jp_hik_sch_a_1)","ChIJHY8tRnsrAmARDrvbTNjR_tg","35.3153923","136.2799377","JP","HIK","HIK","SCH","Japan, 〒521-0011 Shiga, Maibara, Nakatara, ６０３−１ Sun Village 米原","jp_hik_sch_b_1","270","jp_hik_sch_b_1_270"
"trial","survey","29","726569","0.0-2.0-27.0","61002eec687786ee42e7997a","625e209c10a247530e1c6964","625ef1df305b38736a153b14","4","16944","","{""P0_Q0"":null,""ambiguous"":2,""objects"":2,""invisible"":3,""chaos"":1}","","","","","","","","","","","","","","","","","[]","Ryōgoku Post Office","ChIJ-792HbOOGGARe1sZkDax64U","35.6954419","139.7857167","JP","TOK","CTR","POS","2-chōme-27-12 Higashinihonbashi, Chuo City, Tokyo 103-0004, Japan","jp_tok-c_pos_a_5","270","jp_tok-c_pos_a_5_270"
"trial","survey","30","742038","0.0-2.0-28.0","61002eec687786ee42e7997a","625e209c10a247530e1c6964","625ef1df305b38736a153b14","4","15450","","{""P0_Q0"":null,""ambiguous"":1,""objects"":2,""invisible"":1,""chaos"":1}","","","","","","","","","","","","","","","","","[]","Fairfield Inn and Suites by Marriott New York Manhattan Times Square","FNNYCFIF","40.75652","-73.99247","US","NYC","CTR","HTL","330 WEST 40TH STREET, NEW YORK, NY 10018","us_nyc-c_htl_a_mid1","0","us_nyc-c_htl_a_mid1_0"
"trial","survey","31","767826","0.0-2.0-29.0","61002eec687786ee42e7997a","625e209c10a247530e1c6964","625ef1df305b38736a153b14","4","25773","","{""P0_Q0"":null,""ambiguous"":3,""objects"":4,""invisible"":4,""chaos"":4}","","","","","","","","","","","","","","","","","[]","Nearby location of BASIS Independent Manhattan (us_nyc-c_sch_a_1)","ChIJ5ZYR6Sb2wokRg8Qj29B4aF4","40.7956348","-73.9670782","US","NYC","CTR","SCH","120 W 100th St, New York, NY 10025, USA","us_nyc-c_sch_b_1","270","us_nyc-c_sch_b_1_270"
"trial","survey","32","784702","0.0-2.0-30.0","61002eec687786ee42e7997a","625e209c10a247530e1c6964","625ef1df305b38736a153b14","4","16861","","{""P0_Q0"":null,""ambiguous"":1,""objects"":2,""invisible"":1,""chaos"":1}","","","","","","","","","","","","","","","","","[]","Nearby location of United States Postal Service (us_arb_pos_a_1)","ChIJyxaGSDe7PIgRdsmUdk5LYuo","42.1703237","-83.7718728","US","ARB","ARB","POS","450 E Michigan Ave, Saline, MI 48176, USA","us_arb_pos_b_1","90","us_arb_pos_b_1_90"
"trial","survey","33","795549","0.0-2.0-31.0","61002eec687786ee42e7997a","625e209c10a247530e1c6964","625ef1df305b38736a153b14","4","10830","","{""P0_Q0"":null,""ambiguous"":1,""objects"":2,""invisible"":1,""chaos"":1}","","","","","","","","","","","","","","","","","[]","Tsukishima 2nd Elementary School","ChIJU0n9-HyJGGARNQSXKv-kIIY","35.6602474","139.7758266","JP","TOK","CTR","SCH","1-chōme-12-2 Kachidoki, Chuo City, Tokyo 104-0054, Japan","jp_tok-c_sch_a_3","180","jp_tok-c_sch_a_3_180"
"trial","survey","34","814093","0.0-2.0-32.0","61002eec687786ee42e7997a","625e209c10a247530e1c6964","625ef1df305b38736a153b14","4","18525","","{""P0_Q0"":null,""ambiguous"":3,""objects"":1,""invisible"":3,""chaos"":2}","","","","","","","","","","","","","","","","","[]","HOTEL K5","DSTYOKHO","35.68271","139.77801","JP","TOK","CTR","HTL","3-5 NIHOMBASHI KABUTOCHO, TOKYO 103-0026","jp_tok-c_htl_a_mid1","0","jp_tok-c_htl_a_mid1_0"
"trial","survey","35","837938","0.0-2.0-33.0","61002eec687786ee42e7997a","625e209c10a247530e1c6964","625ef1df305b38736a153b14","4","23830","","{""P0_Q0"":null,""ambiguous"":2,""objects"":4,""invisible"":2,""chaos"":4}","","","","","","","","","","","","","","","","","[]","Flexstay Inn Shinagawa","HSTYOAIW","35.62213","139.7401","JP","TOK","PER","HTL","1-22-19, KITASHINAGAWA, TOKYO 140-0001","jp_tok-p_htl_a_mid2","180","jp_tok-p_htl_a_mid2_180"
"trial","survey","36","854414","0.0-2.0-34.0","61002eec687786ee42e7997a","625e209c10a247530e1c6964","625ef1df305b38736a153b14","4","16461","","{""P0_Q0"":null,""ambiguous"":2,""objects"":2,""invisible"":3,""chaos"":3}","","","","","","","","","","","","","","","","","[]","Nearby location of THOMPSON CENTRAL PARK - NEW YORK (us_nyc-c_htl_a_high2)","ChIJO4JkSfdYwokRIlgrbHiZhtk","40.7652312","-73.9775167","US","NYC","CTR","HTL","116 W 58th St, New York, NY 10019, USA","us_nyc-c_htl_b_high2","0","us_nyc-c_htl_b_high2_0"
"trial","survey","37","869195","0.0-2.0-35.0","61002eec687786ee42e7997a","625e209c10a247530e1c6964","625ef1df305b38736a153b14","4","14762","","{""P0_Q0"":null,""ambiguous"":2,""objects"":1,""invisible"":2,""chaos"":1}","","","","","","","","","","","","","","","","","[]","Chelsea House Victorian Inn","ChIJ1ap5tQHMPIgRXxz9M_-mKZc","42.3181667","-84.0196694","US","CHL","CHL","HTL","118 E Middle St, Chelsea, MI 48118, USA","us_chl_htl_a_high1","0","us_chl_htl_a_high1_0"
"trial","survey","38","893406","0.0-2.0-36.0","61002eec687786ee42e7997a","625e209c10a247530e1c6964","625ef1df305b38736a153b14","4","24194","","{""P0_Q0"":null,""ambiguous"":3,""objects"":3,""invisible"":3,""chaos"":4}","","","","","","","","","","","","","","","","","[]","Nearby location of Success Academy Harlem 5 (us_nyc-c_sch_a_2)","ChIJT3PK4nr2wokRoJ2P1lBcwyQ","40.8213713","-73.9455112","US","NYC","CTR","SCH","351 W 141st St, New York, NY 10030, USA","us_nyc-c_sch_b_2","90","us_nyc-c_sch_b_2_90"
"trial","survey","39","914668","0.0-2.0-37.0","61002eec687786ee42e7997a","625e209c10a247530e1c6964","625ef1df305b38736a153b14","4","21246","","{""P0_Q0"":null,""ambiguous"":3,""objects"":3,""invisible"":2,""chaos"":2}","","","","","","","","","","","","","","","","","[]","United States Postal Service","ChIJESBBoWz2wokRc5NBjEpQTow","40.8112416","-73.9532884","US","NYC","CTR","POS","365 W 125th St Ste 2A, New York, NY 10027, USA","us_nyc-c_pos_a_1","90","us_nyc-c_pos_a_1_90"
"trial","survey","40","929257","0.0-2.0-38.0","61002eec687786ee42e7997a","625e209c10a247530e1c6964","625ef1df305b38736a153b14","4","14572","","{""P0_Q0"":null,""ambiguous"":1,""objects"":1,""invisible"":2,""chaos"":1}","","","","","","","","","","","","","","","","","[]","Nearby location of レジーナリゾートびわ湖長浜 (jp_hik_htl_a_high2)","ChIJJclVFRspAmARIuM3ZJ4DJj4","35.3795647","136.2582185","JP","HIK","HIK","HTL","1-6-2 Kanebōchō, Nagahama, Shiga 526-0068, Japan","jp_hik_htl_b_high2","180","jp_hik_htl_b_high2_180"
"trial","survey","41","942061","0.0-2.0-39.0","61002eec687786ee42e7997a","625e209c10a247530e1c6964","625ef1df305b38736a153b14","4","12789","","{""P0_Q0"":null,""ambiguous"":1,""objects"":1,""invisible"":1,""chaos"":1}","","","","","","","","","","","","","","","","","[]","Nearby location of United States Postal Service (us_nyc-p_pos_a_5)","ChIJAxFT_p70wokRYeihFIw0wFU","40.8546215","-73.8685765","US","NYC","PER","POS","625 Lydig Ave, Bronx, NY 10462, USA","us_nyc-p_pos_b_5","90","us_nyc-p_pos_b_5_90"
"attention-check","survey","42","948745","0.0-2.0-40.0","61002eec687786ee42e7997a","625e209c10a247530e1c6964","625ef1df305b38736a153b14","4","6669","","{""P0_Q0"":null,""ambiguous"":null,""objects"":null,""invisible"":null,""chaos"":null}","","","","","","","","","","","","","","","","","[]","","","","","","","","","","","",""
"half-way","html-button-response","43","964513","0.0-2.0-41.0","61002eec687786ee42e7997a","625e209c10a247530e1c6964","625ef1df305b38736a153b14","4","null","
            <h3>You are now half way through the study.</h3>
            <p>Please take a quick, 15-second break before you continue.</p>
            <img src='assets/img/countdown-15.gif'>
            <p>The study will automatically advance forward after the countdown is complete. However, you may click ""Next"" to advance forward now if you wish.</p>
        ","null","","","","","","","","","","","","","","","","","","","","","","","","","","","","",""
"trial","survey","44","982089","0.0-2.0-42.0","61002eec687786ee42e7997a","625e209c10a247530e1c6964","625ef1df305b38736a153b14","4","17544","","{""P0_Q0"":null,""ambiguous"":4,""objects"":2,""invisible"":3,""chaos"":2}","","","","","","","","","","","","","","","","","[]","Nearby location of Baymont by Wyndham Chelsea (us_chl_htl_a_mid1)","ChIJPR5PbrjOPIgRniUqQCWoPWs","42.298341","-84.0291029","US","CHL","CHL","HTL","1620 Commerce Park Dr suite 100, Chelsea, MI 48118, USA","us_chl_htl_b_mid1","0","us_chl_htl_b_mid1_0"
"trial","survey","45","998200","0.0-2.0-43.0","61002eec687786ee42e7997a","625e209c10a247530e1c6964","625ef1df305b38736a153b14","4","16093","","{""P0_Q0"":null,""ambiguous"":2,""objects"":3,""invisible"":3,""chaos"":3}","","","","","","","","","","","","","","","","","[]","Nearby location of The Williamsburg Hotel (us_nyc-p_htl_a_high1)","ChIJH00_Y11ZwokR19006V8VF7Q","40.7203468","-73.9589785","US","NYC","PER","HTL","84 N 9th St, Brooklyn, NY 11249, USA","us_nyc-p_htl_b_high1","0","us_nyc-p_htl_b_high1_0"
"trial","survey","46","1018280","0.0-2.0-44.0","61002eec687786ee42e7997a","625e209c10a247530e1c6964","625ef1df305b38736a153b14","4","20062","","{""P0_Q0"":null,""ambiguous"":3,""objects"":5,""invisible"":2,""chaos"":3}","","","","","","","","","","","","","","","","","[]","Nearby location of Comfort Inn JFK Airport (us_nyc-p_htl_a_low2)","ChIJ8dO9l21nwokRghi6bJiuq5c","40.6671742","-73.806723","US","NYC","PER","HTL","133-38 135th Ave, Queens, NY 11420, USA","us_nyc-p_htl_b_low2","180","us_nyc-p_htl_b_low2_180"
"trial","survey","47","1030731","0.0-2.0-45.0","61002eec687786ee42e7997a","625e209c10a247530e1c6964","625ef1df305b38736a153b14","4","12436","","{""P0_Q0"":null,""ambiguous"":1,""objects"":1,""invisible"":1,""chaos"":1}","","","","","","","","","","","","","","","","","[]","Nearby location of United States Postal Service (us_nyc-c_pos_a_4)","ChIJcyZXC532wokRElZ4iPS6aWo","40.8396207","-73.9374588","US","NYC","CTR","POS","2170 Amsterdam Ave, New York, NY 10032, USA","us_nyc-c_pos_b_4","270","us_nyc-c_pos_b_4_270"
"trial","survey","48","1053517","0.0-2.0-46.0","61002eec687786ee42e7997a","625e209c10a247530e1c6964","625ef1df305b38736a153b14","4","22791","","{""P0_Q0"":null,""ambiguous"":2,""objects"":3,""invisible"":4,""chaos"":3}","","","","","","","","","","","","","","","","","[]","Nearby location of Mitchell Elementary School (us_arb_sch_a_4)","ChIJs-axekGvPIgRBvxYNOm48Hc","42.2361096","-83.6952309","US","ARB","ARB","SCH","3318 Williamsburg Rd, Ann Arbor, MI 48108, USA","us_arb_sch_b_4","90","us_arb_sch_b_4_90"
"trial","survey","49","1070497","0.0-2.0-47.0","61002eec687786ee42e7997a","625e209c10a247530e1c6964","625ef1df305b38736a153b14","4","16972","","{""P0_Q0"":null,""ambiguous"":2,""objects"":2,""invisible"":3,""chaos"":1}","","","","","","","","","","","","","","","","","[]","Nearby location of Jonan Daini Elementary School (jp_tok-p_sch_a_5)","ChIJ2To8y2-KGGARuI3U_BCg3Sg","35.614051","139.744792","JP","TOK","PER","SCH","2-chōme-15-6 Minamishinagawa, Shinagawa City, Tokyo 140-0004, Japan","jp_tok-p_sch_b_5","270","jp_tok-p_sch_b_5_270"
"trial","survey","50","1095670","0.0-2.0-48.0","61002eec687786ee42e7997a","625e209c10a247530e1c6964","625ef1df305b38736a153b14","4","25158","","{""P0_Q0"":null,""ambiguous"":2,""objects"":4,""invisible"":3,""chaos"":2}","","","","","","","","","","","","","","","","","[]","Nearby location of Bronx Charter School for Excellence 3 (us_nyc-p_sch_a_6)","ChIJe_mvGSPzwokRCYjGIqRdQGo","40.8872687","-73.8619035","US","NYC","PER","SCH","672 E 224th St, Bronx, NY 10466, USA","us_nyc-p_sch_b_6","270","us_nyc-p_sch_b_6_270"
"trial","survey","51","1116698","0.0-2.0-49.0","61002eec687786ee42e7997a","625e209c10a247530e1c6964","625ef1df305b38736a153b14","4","21010","","{""P0_Q0"":null,""ambiguous"":1,""objects"":3,""invisible"":1,""chaos"":3}","","","","","","","","","","","","","","","","","[]","Adahi Sano Post Office","ChIJuYxTuuOPGGAREn1yJl24fbw","35.7864794","139.8411136","JP","HIK","HIK","POS","2-chōme-11-12 Sano, Adachi City, Tokyo 121-0053, Japan","jp_hik_pos_a_3","270","jp_hik_pos_a_3_270"
"trial","survey","52","1137768","0.0-2.0-50.0","61002eec687786ee42e7997a","625e209c10a247530e1c6964","625ef1df305b38736a153b14","4","21052","","{""P0_Q0"":null,""ambiguous"":2,""objects"":3,""invisible"":2,""chaos"":2}","","","","","","","","","","","","","","","","","[]","The Williamsburg Hotel","WVNYCTWH","40.72173","-73.95801","US","NYC","PER","HTL","96 WYTHE AVENUE, BROOKLYN, NY 11249","us_nyc-p_htl_a_high1","270","us_nyc-p_htl_a_high1_270"
"trial","survey","53","1151722","0.0-2.0-51.0","61002eec687786ee42e7997a","625e209c10a247530e1c6964","625ef1df305b38736a153b14","4","13936","","{""P0_Q0"":null,""ambiguous"":1,""objects"":3,""invisible"":1,""chaos"":3}","","","","","","","","","","","","","","","","","[]","Jittered SV for Aman Tokyo (jp_tok-c_htl_a_ultra1)","ChIJVVWFvviLGGARpWS-yu8uP1k","35.6853286","139.7666855","JP","TOK","CTR","HTL","2-chōme-2-1 Ōtemachi, Chiyoda City, Tokyo 100-0004, Japan","jp_tok-c_htl_a_ultra1","90","jp_tok-c_htl_a_ultra1_90"
"trial","survey","54","1164370","0.0-2.0-52.0","61002eec687786ee42e7997a","625e209c10a247530e1c6964","625ef1df305b38736a153b14","4","12632","","{""P0_Q0"":null,""ambiguous"":2,""objects"":2,""invisible"":1,""chaos"":1}","","","","","","","","","","","","","","","","","[]","Nearby location of Toshima Minami-Nagasaki Post Office (jp_tok-c_pos_a_4)","ChIJW9I5jqnyGGAR4LJcH4_S0to","35.725497","139.6854672","JP","TOK","CTR","POS","4-chōme-29-3 Minaminagasaki, Toshima City, Tokyo 171-0052, Japan","jp_tok-c_pos_b_4","270","jp_tok-c_pos_b_4_270"
"trial","survey","55","1184273","0.0-2.0-53.0","61002eec687786ee42e7997a","625e209c10a247530e1c6964","625ef1df305b38736a153b14","4","19885","","{""P0_Q0"":null,""ambiguous"":4,""objects"":4,""invisible"":5,""chaos"":4}","","","","","","","","","","","","","","","","","[]","Adachi Asahicho Post Office","ChIJwzPq-E2OGGAR94jgKLnB1pg","35.7492042","139.8090847","JP","TOK","PER","POS","27-13 Senjuasahichō, Adachi City, Tokyo 120-0026, Japan","jp_tok-p_pos_a_4","270","jp_tok-p_pos_a_4_270"
"trial","survey","56","1202650","0.0-2.0-54.0","61002eec687786ee42e7997a","625e209c10a247530e1c6964","625ef1df305b38736a153b14","4","18361","","{""P0_Q0"":null,""ambiguous"":3,""objects"":3,""invisible"":2,""chaos"":2}","","","","","","","","","","","","","","","","","[]","Nearby location of United States Postal Service (us_nyc-c_pos_a_6)","ChIJ63f0hz9ZwokRTruThu3Ng6s","40.7682731","-73.9822808","US","NYC","CTR","POS","15 Columbus Cir, New York, NY 10019, USA","us_nyc-c_pos_b_6","180","us_nyc-c_pos_b_6_180"
"trial","survey","57","1214589","0.0-2.0-55.0","61002eec687786ee42e7997a","625e209c10a247530e1c6964","625ef1df305b38736a153b14","4","11925","","{""P0_Q0"":null,""ambiguous"":1,""objects"":2,""invisible"":1,""chaos"":1}","","","","","","","","","","","","","","","","","[]","Nearby location of Adachi Asahicho Post Office (jp_tok-p_pos_a_4)","ChIJhXM9R1KOGGAR7zoOSZK_VIU","35.7480131","139.8100604","JP","TOK","PER","POS","Japan, 〒120-0026 Tokyo, Adachi City, Senjuasahichō, 22−９ コーポ山田","jp_tok-p_pos_b_4","90","jp_tok-p_pos_b_4_90"
"trial","survey","58","1231192","0.0-2.0-56.0","61002eec687786ee42e7997a","625e209c10a247530e1c6964","625ef1df305b38736a153b14","4","16587","","{""P0_Q0"":null,""ambiguous"":2,""objects"":2,""invisible"":3,""chaos"":3}","","","","","","","","","","","","","","","","","[]","Ann Arbor Christian School","ChIJ1SluE2-tPIgR2t57M0S5d6M","42.354132","-83.750108","US","ARB","ARB","SCH","5500 Whitmore Lake Rd, Ann Arbor, MI 48105, USA","us_arb_sch_a_2","180","us_arb_sch_a_2_180"
"trial","survey","59","1254709","0.0-2.0-57.0","61002eec687786ee42e7997a","625e209c10a247530e1c6964","625ef1df305b38736a153b14","4","23499","","{""P0_Q0"":null,""ambiguous"":2,""objects"":2,""invisible"":3,""chaos"":1}","","","","","","","","","","","","","","","","","[]","Nearby location of United States Postal Service (us_arb_pos_a_1)","ChIJyxaGSDe7PIgRdsmUdk5LYuo","42.1703237","-83.7718728","US","ARB","ARB","POS","450 E Michigan Ave, Saline, MI 48176, USA","us_arb_pos_b_1","180","us_arb_pos_b_1_180"
"trial","survey","60","1272656","0.0-2.0-58.0","61002eec687786ee42e7997a","625e209c10a247530e1c6964","625ef1df305b38736a153b14","4","17932","","{""P0_Q0"":null,""ambiguous"":3,""objects"":2,""invisible"":2,""chaos"":1}","","","","","","","","","","","","","","","","","[]","Nearby location of Oizumi Daini Elementary School (jp_tok-p_sch_a_6)","ChIJMaeqHtruGGARm4LZU_WxHzQ","35.7454686","139.5741349","JP","TOK","PER","SCH","4-chōme-32-2 Minamiōizumi, Nerima City, Tokyo 178-0064, Japan","jp_tok-p_sch_b_6","90","jp_tok-p_sch_b_6_90"
"trial","survey","61","1286796","0.0-2.0-59.0","61002eec687786ee42e7997a","625e209c10a247530e1c6964","625ef1df305b38736a153b14","4","14122","","{""P0_Q0"":null,""ambiguous"":2,""objects"":3,""invisible"":3,""chaos"":2}","","","","","","","","","","","","","","","","","[]","Nearby location of Jingūmae 6 Post Office (jp_tok-c_pos_a_2)","ChIJo2FXfqaMGGARaHWKnjoqihY","35.665387","139.7037685","JP","TOK","CTR","POS","6-chōme-16-6 Jingūmae, Shibuya City, Tokyo 150-0001, Japan","jp_tok-c_pos_b_2","0","jp_tok-c_pos_b_2_0"
"trial","survey","62","1296079","0.0-2.0-60.0","61002eec687786ee42e7997a","625e209c10a247530e1c6964","625ef1df305b38736a153b14","4","9265","","{""P0_Q0"":null,""ambiguous"":1,""objects"":2,""invisible"":1,""chaos"":1}","","","","","","","","","","","","","","","","","[]","Nearby location of Aman Tokyo (jp_tok-c_htl_a_ultra1)","ChIJ5W6CKziLGGAR73lO8PA1mRk","35.6844083","139.7640849","JP","TOK","CTR","HTL","1-chōme-3-4 Marunouchi, Chiyoda City, Tokyo 100-0005, Japan","jp_tok-c_htl_b_ultra1","90","jp_tok-c_htl_b_ultra1_90"
"trial","survey","63","1314090","0.0-2.0-61.0","61002eec687786ee42e7997a","625e209c10a247530e1c6964","625ef1df305b38736a153b14","4","17995","","{""P0_Q0"":null,""ambiguous"":3,""objects"":2,""invisible"":3,""chaos"":1}","","","","","","","","","","","","","","","","","[]","The Ritz-Carlton Tokyo","RZTYORZZ","35.66622","139.7315","JP","TOK","CTR","HTL","TOKYO MIDTOWN 9-7-1 AKASAKA MI, TOKYO 107-6245","jp_tok-c_htl_a_ultra2","270","jp_tok-c_htl_a_ultra2_270"
"trial","survey","64","1330812","0.0-2.0-62.0","61002eec687786ee42e7997a","625e209c10a247530e1c6964","625ef1df305b38736a153b14","4","16703","","{""P0_Q0"":null,""ambiguous"":1,""objects"":3,""invisible"":2,""chaos"":2}","","","","","","","","","","","","","","","","","[]","Nearby location of HOTEL ALLAMANDA AOYAMA (jp_tok-c_htl_a_high1)","ChIJBeIIXpyMGGARp8F4yBa84pg","35.6704599","139.7189166","JP","TOK","CTR","HTL","2-chōme-22-14 Minamiaoyama, Minato City, Tokyo 107-0062, Japan","jp_tok-c_htl_b_high1","270","jp_tok-c_htl_b_high1_270"
"trial","survey","65","1350056","0.0-2.0-63.0","61002eec687786ee42e7997a","625e209c10a247530e1c6964","625ef1df305b38736a153b14","4","19229","","{""P0_Q0"":null,""ambiguous"":3,""objects"":3,""invisible"":3,""chaos"":2}","","","","","","","","","","","","","","","","","[]","Kotō 3rd Elementary School","ChIJyWBTvO3XA2ARubFCKa9mR4A","35.130888","136.225113","JP","HIK","HIK","SCH","340 Kotakarichō, Higashiomi, Shiga 527-0125, Japan","jp_hik_sch_a_3","270","jp_hik_sch_a_3_270"
"trial","survey","66","1366686","0.0-2.0-64.0","61002eec687786ee42e7997a","625e209c10a247530e1c6964","625ef1df305b38736a153b14","4","16616","","{""P0_Q0"":null,""ambiguous"":2,""objects"":3,""invisible"":2,""chaos"":2}","","","","","","","","","","","","","","","","","[]","Nearby location of Days Inn by Wyndham Ann Arbor (us_arb_htl_a_low2)","ChIJMyKc2S2vPIgRmaoMJQDyUQ0","42.251289","-83.682438","US","ARB","ARB","HTL","2489 Gross Rd, Ann Arbor, MI 48108, USA","us_arb_htl_b_low2","0","us_arb_htl_b_low2_0"
"trial","survey","67","1387717","0.0-2.0-65.0","61002eec687786ee42e7997a","625e209c10a247530e1c6964","625ef1df305b38736a153b14","4","21016","","{""P0_Q0"":null,""ambiguous"":2,""objects"":2,""invisible"":3,""chaos"":2}","","","","","","","","","","","","","","","","","[]","Hikoneatohoteru","ChIJcSdJDVfUA2ARZ1X1w0kURVw","35.2392938","136.255227","JP","HIK","HIK","HTL","1707-1 Takamiyachō, Hikone, Shiga 522-0201, Japan","jp_hik_htl_a_low1","0","jp_hik_htl_a_low1_0"
"trial","survey","68","1401294","0.0-2.0-66.0","61002eec687786ee42e7997a","625e209c10a247530e1c6964","625ef1df305b38736a153b14","4","13559","","{""P0_Q0"":null,""ambiguous"":2,""objects"":1,""invisible"":1,""chaos"":1}","","","","","","","","","","","","","","","","","[]","Nearby location of Ann Arbor Christian School (us_arb_sch_a_2)","ChIJx979uW-tPIgRK2esjhwtDDE","42.352939","-83.7497999","US","ARB","ARB","SCH","5460 Whitmore Lake Rd, Ann Arbor, MI 48105, USA","us_arb_sch_b_2","90","us_arb_sch_b_2_90"
"trial","survey","69","1421516","0.0-2.0-67.0","61002eec687786ee42e7997a","625e209c10a247530e1c6964","625ef1df305b38736a153b14","4","20212","","{""P0_Q0"":null,""ambiguous"":2,""objects"":3,""invisible"":3,""chaos"":1}","","","","","","","","","","","","","","","","","[]","Marunouchi Center Bldg. Post Office","ChIJEXvU5PiLGGARr5EAERW7XhI","35.6836406","139.7655925","JP","TOK","CTR","POS","1-chōme-6-1 Marunouchi, Chiyoda City, Tokyo 100-0005, Japan","jp_tok-c_pos_a_8","0","jp_tok-c_pos_a_8_0"
"trial","survey","70","1446991","0.0-2.0-68.0","61002eec687786ee42e7997a","625e209c10a247530e1c6964","625ef1df305b38736a153b14","4","25457","","{""P0_Q0"":null,""ambiguous"":2,""objects"":2,""invisible"":2,""chaos"":2}","","","","","","","","","","","","","","","","","[]","Nearby location of Ryōgoku Post Office (jp_tok-c_pos_a_5)","ChIJBRNSarKOGGARKk3b5BlK71s","35.696528","139.784235","JP","TOK","CTR","POS","Japan, 〒111-0053 Tokyo, Taito City, Asakusabashi, 1-chōme−2−８ 丸一ビル","jp_tok-c_pos_b_5","270","jp_tok-c_pos_b_5_270"
"trial","survey","71","1460410","0.0-2.0-69.0","61002eec687786ee42e7997a","625e209c10a247530e1c6964","625ef1df305b38736a153b14","4","13404","","{""P0_Q0"":null,""ambiguous"":2,""objects"":1,""invisible"":1,""chaos"":1}","","","","","","","","","","","","","","","","","[]","Baymont by Wyndham Chelsea","ChIJ3WjGMLjOPIgRTSh5bhMfx-Q","42.2995297","-84.0281015","US","CHL","CHL","HTL","1540 Commerce Park Dr, Chelsea, MI 48118, USA","us_chl_htl_a_mid1","0","us_chl_htl_a_mid1_0"
"trial","survey","72","1476431","0.0-2.0-70.0","61002eec687786ee42e7997a","625e209c10a247530e1c6964","625ef1df305b38736a153b14","4","16006","","{""P0_Q0"":null,""ambiguous"":1,""objects"":1,""invisible"":1,""chaos"":1}","","","","","","","","","","","","","","","","","[]","United States Postal Service","ChIJ1WavSUSuPIgRi9j9aKANWYg","42.2745042","-83.7339227","US","ARB","ARB","POS","1214 S University Ave Ste S104, Ann Arbor, MI 48104, USA","us_arb_pos_a_4","180","us_arb_pos_a_4_180"
"trial","survey","73","1493462","0.0-2.0-71.0","61002eec687786ee42e7997a","625e209c10a247530e1c6964","625ef1df305b38736a153b14","4","17017","","{""P0_Q0"":null,""ambiguous"":5,""objects"":1,""invisible"":5,""chaos"":3}","","","","","","","","","","","","","","","","","[]","Nearby location of Multicultural Academy (us_arb_sch_a_3)","ChIJ-d4ve5SlPIgRkuG2a85xlZo","42.2058484","-83.701771","US","ARB","ARB","SCH","2866 Glen Creek Dr, Ann Arbor, MI 48108, USA","us_arb_sch_b_3","180","us_arb_sch_b_3_180"
"trial","survey","74","1531351","0.0-2.0-72.0","61002eec687786ee42e7997a","625e209c10a247530e1c6964","625ef1df305b38736a153b14","4","37871","","{""P0_Q0"":null,""ambiguous"":3,""objects"":2,""invisible"":3,""chaos"":3}","","","","","","","","","","","","","","","","","[]","Kakezuka Elementary School","ChIJLYvCVhSLGGARQZ0PUiBKWkg","35.6443992","139.714528","JP","TOK","CTR","SCH","4-chōme-21-10 Ebisu, Shibuya City, Tokyo 150-0013, Japan","jp_tok-c_sch_a_4","270","jp_tok-c_sch_a_4_270"
"trial","survey","75","1545621","0.0-2.0-73.0","61002eec687786ee42e7997a","625e209c10a247530e1c6964","625ef1df305b38736a153b14","4","14252","","{""P0_Q0"":null,""ambiguous"":3,""objects"":1,""invisible"":2,""chaos"":2}","","","","","","","","","","","","","","","","","[]","Nearby location of United States Postal Service (us_chl_pos_a_1)","ChIJt-RJ963OPIgRV95g54XMslo","42.3073218","-84.0212878","US","CHL","CHL","POS","1070 S Main St, Chelsea, MI 48118, USA","us_chl_pos_b_1","90","us_chl_pos_b_1_90"
"trial","survey","76","1559561","0.0-2.0-74.0","61002eec687786ee42e7997a","625e209c10a247530e1c6964","625ef1df305b38736a153b14","4","13924","","{""P0_Q0"":null,""ambiguous"":2,""objects"":1,""invisible"":3,""chaos"":1}","","","","","","","","","","","","","","","","","[]","United States Postal Service","ChIJ2S39Rs6xPIgRFumqYMpJrTE","42.2709374","-83.7748696","US","ARB","ARB","POS","2075 W Stadium Blvd, Ann Arbor, MI 48103, USA","us_arb_pos_a_2","180","us_arb_pos_a_2_180"
"trial","survey","77","1573963","0.0-2.0-75.0","61002eec687786ee42e7997a","625e209c10a247530e1c6964","625ef1df305b38736a153b14","4","14384","","{""P0_Q0"":null,""ambiguous"":2,""objects"":2,""invisible"":1,""chaos"":2}","","","","","","","","","","","","","","","","","[]","Nearby location of 長浜BGホテル (us_chl_htl_a_mid1)","ChIJ2S_MbyspAmARkndCsjafTIg","35.3930344","136.2840486","JP","TOR","TOR","HTL","222-1 Kawasakichō, Nagahama, Shiga 526-0846, Japan","jp_tor_htl_b_mid1","90","jp_tor_htl_b_mid1_90"
"trial","survey","78","1586385","0.0-2.0-76.0","61002eec687786ee42e7997a","625e209c10a247530e1c6964","625ef1df305b38736a153b14","4","12407","","{""P0_Q0"":null,""ambiguous"":2,""objects"":4,""invisible"":3,""chaos"":4}","","","","","","","","","","","","","","","","","[]","Nearby location of Ōmori Bellport Post Office (jp_hik_pos_a_2)","ChIJ7Ywa2cxhGGARziYl93kj-_E","35.5874802","139.7328359","JP","HIK","HIK","POS","3-chōme-35-8 Minamiōi, Shinagawa City, Tokyo 140-0013, Japan","jp_hik_pos_b_2","180","jp_hik_pos_b_2_180"
"demographics","survey-html-form","79","1598031","0.0-2.0-77.0","61002eec687786ee42e7997a","625e209c10a247530e1c6964","625ef1df305b38736a153b14","4","11641","","{""age"":""25"",""gender"":""female"",""gender-self-describe"":"""",""zipcode"":""82001""}","","","","","","","","","","","","","","","","","","","","","","","","","","","","",""
"demographics","survey","80","1604954","0.0-2.0-78.0","61002eec687786ee42e7997a","625e209c10a247530e1c6964","625ef1df305b38736a153b14","4","6891","","{""P0_Q0"":null,""outsideUS"":""No"",""outsideUS_years"":""""}","","","","","","","","","","","","","","","","","[]","","","","","","","","","","","",""
"end-survey","survey-text","81","1615612","0.0-2.0-79.0","61002eec687786ee42e7997a","625e209c10a247530e1c6964","625ef1df305b38736a153b14","4","10646","","{""Q0"":""""}","","","","","","","","","","","","","","","","","","","","","","","","","","","","",""
