"task","trial_type","trial_index","time_elapsed","internal_node_id","subject_id","study_id","session_id","group","rt","stimulus","response","width","height","webaudio","browser","browser_version","mobile","os","fullscreen","vsync_rate","webcam","microphone","success","timeout","failed_images","failed_audio","failed_video","accuracy","name","place_id","lat","lng","culture","loc1","loc2","loct","address","loc_id_prev","angle","loc_id"
"pavlovia-init","pavlovia","0","2027","0.0-0.0","6234ab1760a4a3d585b02e58","625e209c10a247530e1c6964","625eeafb6ae4e621e6e16465","6","","","","","","","","","","","","","","","","","","","","","","","","","","","","","","","",""
"consent","html-button-response","1","6062","0.0-1.0","6234ab1760a4a3d585b02e58","625e209c10a247530e1c6964","625eeafb6ae4e621e6e16465","6","4029","
        <div style=""font-size: 80%; max-width:700px"">
            <h2>Informed Consent</h2><br>
        
            <div style=""text-align: left"">
            <h3>Streetscape Perceptions</h3>
            <b>HUM00189138</b>
            <br><hr>
        
            <h4>DESCRIPTION</h4>
            <p>
                In this study, you will view Google Street View images. You will then answer questions about your impressions of the streetscapes presented in those images.
            </p><br>
        
            <h4>TIME INVOLVEMENT</h4>
            <p>Your participation will take approximately 30 minutes.</p><br>
        
            <h4>RISKS AND BENEFITS</h4>
            <p>
                The risks associated with this study are minimal. The benefits which may reasonably be expected to result from this study are none.  We cannot and do not guarantee or promise that you will receive any benefits from this study. 
            </p><br>
        
            <h4>PAYMENTS</h4>
            <p>You will be paid <b>$5.00</b> for your participation.</p><br>
        
            <h4>SUBJECT'S RIGHTS</h4>
            <p>
                If you have read this form and have decided to participate in this project, please understand your participation is voluntary and you have the right to withdraw your consent or discontinue participation at any time without penalty or loss of benefits to which you are otherwise entitled.  The alternative is not to participate.  You have the right to refuse to answer particular questions.  
            </p>
        
            <p>
                Your individual privacy will be maintained in all published and written data resulting from the study. Your responses will be kept confidential: you are given a participant code, and no one, not even the research team, can match that code with your identity. Your collected information may also be shared with other researchers as part of our dataset.
            </p><br>
        
            <h4>CONTACT INFORMATION</h4>
            <p>
                Questions: If you have any questions, concerns or complaints about this research, its procedures, risks and benefits, contact the Protocol Director, Nicholas Camp, npcamp@umich.edu, (443) 851-6783.
            </p>
        
            <p>
                If you have questions about your rights as a research participant, or wish to obtain information, ask questions or discuss any concerns about this study with someone other than the researcher(s), please contact the following:
                <br><br>
        
                University of Michigan<br>
                Health Sciences and Behavioral Sciences Institutional Review Board
                (IRB-HSBS)<br>
                2800 Plymouth Road <br>
                Building 520, Room 1169 <br>
                Ann Arbor, MI 48109-2800 <br>
                Telephone: 734-936-0933 or toll free (866) 936-0933 <br>
                Fax: 734-936-1852 <br />
                E-mail: irbhsbs@umich.edu <br>
            </p>
        
            <p>
                You can also contact the University of Michigan Compliance Hotline at 1-866-990-0111. You may also print this consent form to keep.
            </p>
            <br>
        
            <div class=""alert alert-warning""><b>
                Do you consent to participate in this study? If you consent to participate in this study, please click “Accept and continue.”
            </b></div>
            </div>
        </div>
    ","1","","","","","","","","","","","","","","","","","","","","","","","","","","","","",""
"browser-check","browser-check","2","7183","0.0-2.0-0.0","6234ab1760a4a3d585b02e58","625e209c10a247530e1c6964","625eeafb6ae4e621e6e16465","6","","","","980","1625","true","ios","14.1.2","true","iOS","false","54.2","true","true","","","","","","","","","","","","","","","","","",""
"","preload","3","8645","0.0-2.0-1.0","6234ab1760a4a3d585b02e58","625e209c10a247530e1c6964","625eeafb6ae4e621e6e16465","6","","","","","","","","","","","","","","","true","false","[]","[]","[]","","","","","","","","","","","","",""
"instructions","html-button-response","4","12568","0.0-2.0-2.0","6234ab1760a4a3d585b02e58","625e209c10a247530e1c6964","625eeafb6ae4e621e6e16465","6","3920","
        <div class=""text-container"">
            <h1>Welcome to the study!</h1>
            
            <div class=""text-left"">
                <p>
                    In this study, we are interested in how people think about different Google Street View images. Google Street View takes pictures of streets used for Google Earth and Google Maps. You’ll see Google Street View images of different places and answer some questions about each one.
                </p>
            </div>
            
            <img src='
            https://maps.googleapis.com/maps/api/streetview?size=640x320
            &location=37.783631,-122.432766
            &heading=80
            &pitch=2
            &fov=100
            &radius=150
            &key=AIzaSyC2OxRDg6qlzZDj7j0UAD2XyE0qWokLvvs
            &source=outdoor'>
        
            <br>
        <br>
    ","0","","","","","","","","","","","","","","","","","","","","","","","","","","","","",""
"instructions","html-button-response","5","27201","0.0-2.0-3.0","6234ab1760a4a3d585b02e58","625e209c10a247530e1c6964","625eeafb6ae4e621e6e16465","6","14329","
        <style>
            img.small {
            max-width: 100px;
            }
            li {
            text-indent: 40px;
            }
        </style>

        <div class=""text-container text-left"">
            <p>For each picture, we’d like your impressions of the scene:</p>
            
            <hr>
                Are there <b>clear, distinct boundaries</b> between objects in the scene, or are the <b>boundaries ambiguous or unclear</b>?
                
                <li>clear, distinct boundaries: <img class=""small"" src=""assets/img/ambiguous-low.png""></li>
                <li>ambiguous or unclear boundaries: <img class=""small"" src=""assets/img/ambiguous-high.png""></li>
            <hr>
            <br>
                Are there <b>only a few different objects</b> in the scene, or is there <b>a large number</b>?
            <br><br>
            <hr>
                Are only <b>a few parts</b> of the scene <b>invisible or obscured</b>, or are <b>many parts invisible or obscured</b>?
                
                <li>a few parts invisible or obscured: <img class=""small"" src=""assets/img/invisible-low.png""></li>
                <li>many parts invisible or obscured: <img class=""small"" src=""assets/img/invisible-high.png""></li>
            <hr>
            <br>
                Does the scene look <b>organized</b> or <b>chaotic</b> to you?
            <br><br>
            <hr>
            
            <p>
                There are no right or wrong answers: we are interested in <b>your</b> impression. Note that some images might have individual buildings or faces blurred for privacy. Please ignore these when making your judgments.
            </p>
        </div>
        <br>
    ","0","","","","","","","","","","","","","","","","","","","","","","","","","","","","",""
"instructions","html-button-response","6","29850","0.0-2.0-4.0","6234ab1760a4a3d585b02e58","625e209c10a247530e1c6964","625eeafb6ae4e621e6e16465","6","2641","
        <div class=""text-container text-left"">
            <p>Please make sure you are doing this study in an area where you can focus and complete the survey in one sitting.</p>

            <p>Don’t spend too much time on any one picture, and, again go with your gut impression!</p>
            
            <p>The study should take about 30 minutes. We’ll let you know when you’re halfway through.</p>
        </div>
            
        <h3>Ready? Click next to get started!</h3>
        <br>
    ","0","","","","","","","","","","","","","","","","","","","","","","","","","","","","",""
"trial","survey","7","51751","0.0-2.0-5.0","6234ab1760a4a3d585b02e58","625e209c10a247530e1c6964","625eeafb6ae4e621e6e16465","6","21806","","{""P0_Q0"":null,""ambiguous"":4,""objects"":3,""invisible"":4,""chaos"":3}","","","","","","","","","","","","","","","","","[]","Nearby location of United States Postal Service (us_nyc-p_pos_a_5)","ChIJAxFT_p70wokRYeihFIw0wFU","40.8546215","-73.8685765","US","NYC","PER","POS","625 Lydig Ave, Bronx, NY 10462, USA","us_nyc-p_pos_b_5","180","us_nyc-p_pos_b_5_180"
"trial","survey","8","67547","0.0-2.0-6.0","6234ab1760a4a3d585b02e58","625e209c10a247530e1c6964","625eeafb6ae4e621e6e16465","6","15773","","{""P0_Q0"":null,""ambiguous"":2,""objects"":2,""invisible"":5,""chaos"":3}","","","","","","","","","","","","","","","","","[]","Jittered SV for Nearby location of The Tokyo Station Hotel (jp_tok-c_htl_a_high2) (jp_tok-c_htl_b_high2)","ChIJYczFnPyLGGARpA9nubZ6QGc","35.679239","139.76798","JP","TOK","CTR","HTL","Tokyo Sta. Yaesuguchi(Yaesu Exit), 2-chōme-3 Yaesu, Chuo City, Tokyo 104-0028, Japan","jp_tok-c_htl_b_high2","270","jp_tok-c_htl_b_high2_270"
"trial","survey","9","80642","0.0-2.0-7.0","6234ab1760a4a3d585b02e58","625e209c10a247530e1c6964","625eeafb6ae4e621e6e16465","6","13071","","{""P0_Q0"":null,""ambiguous"":5,""objects"":5,""invisible"":4,""chaos"":4}","","","","","","","","","","","","","","","","","[]","Nearby location of Hotel Kaito (jp_hik_htl_a_low2)","ChIJK566KTuSAWARF4Kp9393J_4","35.3976612","136.0302169","JP","HIK","HIK","HTL","Japan, 〒520-1631 Shiga, Takashima, Imazuchō Nakoji, 2-chōme−６−３２","jp_hik_htl_b_low2","90","jp_hik_htl_b_low2_90"
"trial","survey","10","95225","0.0-2.0-8.0","6234ab1760a4a3d585b02e58","625e209c10a247530e1c6964","625eeafb6ae4e621e6e16465","6","14561","","{""P0_Q0"":null,""ambiguous"":3,""objects"":2,""invisible"":4,""chaos"":3}","","","","","","","","","","","","","","","","","[]","United States Postal Service","ChIJESBBoWz2wokRc5NBjEpQTow","40.8112416","-73.9532884","US","NYC","CTR","POS","365 W 125th St Ste 2A, New York, NY 10027, USA","us_nyc-c_pos_a_1","180","us_nyc-c_pos_a_1_180"
"trial","survey","11","113232","0.0-2.0-9.0","6234ab1760a4a3d585b02e58","625e209c10a247530e1c6964","625eeafb6ae4e621e6e16465","6","17985","","{""P0_Q0"":null,""ambiguous"":4,""objects"":2,""invisible"":3,""chaos"":4}","","","","","","","","","","","","","","","","","[]","Nearby location of Hilton New York JFK Airport, NY (us_nyc-p_htl_a_mid2)","ChIJvcyCtx9nwokREAp7AP5NM9s","40.6672608","-73.7964601","US","NYC","PER","HTL","135-25 142nd St, Queens, NY 11436, USA","us_nyc-p_htl_b_mid2","90","us_nyc-p_htl_b_mid2_90"
"trial","survey","12","128802","0.0-2.0-10.0","6234ab1760a4a3d585b02e58","625e209c10a247530e1c6964","625eeafb6ae4e621e6e16465","6","15550","","{""P0_Q0"":null,""ambiguous"":5,""objects"":3,""invisible"":4,""chaos"":4}","","","","","","","","","","","","","","","","","[]","Nearby location of Flexstay Inn Shinagawa (jp_tok-p_htl_a_mid2)","ChIJd27F2VyKGGARc1F75nZNGYI","35.6235067","139.7415021","JP","TOK","PER","HTL","1-chōme-8-19 Kitashinagawa, Shinagawa City, Tokyo 140-0001, Japan","jp_tok-p_htl_b_mid2","180","jp_tok-p_htl_b_mid2_180"
"trial","survey","13","139963","0.0-2.0-11.0","6234ab1760a4a3d585b02e58","625e209c10a247530e1c6964","625eeafb6ae4e621e6e16465","6","11138","","{""P0_Q0"":null,""ambiguous"":5,""objects"":4,""invisible"":5,""chaos"":5}","","","","","","","","","","","","","","","","","[]","Nearby location of Bell Tower Hotel (us_arb_htl_a_high2)","ChIJuS95eUCuPIgRE9IqLokaozs","42.280115","-83.7411408","US","ARB","ARB","HTL","200 S State St, Ann Arbor, MI 48104, USA","us_arb_htl_b_high2","180","us_arb_htl_b_high2_180"
"trial","survey","14","155731","0.0-2.0-12.0","6234ab1760a4a3d585b02e58","625e209c10a247530e1c6964","625eeafb6ae4e621e6e16465","6","15748","","{""P0_Q0"":null,""ambiguous"":5,""objects"":4,""invisible"":3,""chaos"":4}","","","","","","","","","","","","","","","","","[]","Hotel Villa Fontaine Nihombashi-Hakozaki","HSTYOASY","35.68042","139.78604","JP","TOK","CTR","HTL","20-10, NIHOMBASHI-HAKOZAKI-CHO, TOKYO 103-0015","jp_tok-c_htl_a_low1","180","jp_tok-c_htl_a_low1_180"
"trial","survey","15","166488","0.0-2.0-13.0","6234ab1760a4a3d585b02e58","625e209c10a247530e1c6964","625eeafb6ae4e621e6e16465","6","10736","","{""P0_Q0"":null,""ambiguous"":5,""objects"":3,""invisible"":4,""chaos"":2}","","","","","","","","","","","","","","","","","[]","Red Roof PLUS Ann Arbor-Univ North","RFARB045","42.30672","-83.69025","US","ARB","ARB","HTL","3621 PLYMOUTH ROAD, ANN ARBOR, MI 48105","us_arb_htl_a_low1","0","us_arb_htl_a_low1_0"
"trial","survey","16","179660","0.0-2.0-14.0","6234ab1760a4a3d585b02e58","625e209c10a247530e1c6964","625eeafb6ae4e621e6e16465","6","13150","","{""P0_Q0"":null,""ambiguous"":5,""objects"":3,""invisible"":5,""chaos"":3}","","","","","","","","","","","","","","","","","[]","Léman Manhattan Preparatory School","ChIJ1R3juBZawokRy34rGleDCJs","40.7060686","-74.0140159","US","NYC","CTR","SCH","1 Morris St, New York, NY 10004, USA","us_nyc-c_sch_a_8","0","us_nyc-c_sch_a_8_0"
"trial","survey","17","194350","0.0-2.0-15.0","6234ab1760a4a3d585b02e58","625e209c10a247530e1c6964","625eeafb6ae4e621e6e16465","6","14667","","{""P0_Q0"":null,""ambiguous"":4,""objects"":4,""invisible"":2,""chaos"":3}","","","","","","","","","","","","","","","","","[]","Jittered SV for Horace Mann Barnard Elementary (us_nyc-p_sch_a_1)","ChIJXWJvya_zwokRupFUpNOXhkc","40.8931192","-73.899225","US","NYC","PER","SCH","231 W 246th St, Bronx, NY 10471, USA","us_nyc-p_sch_a_1","0","us_nyc-p_sch_a_1_0"
"trial","survey","18","202401","0.0-2.0-16.0","6234ab1760a4a3d585b02e58","625e209c10a247530e1c6964","625eeafb6ae4e621e6e16465","6","8033","","{""P0_Q0"":null,""ambiguous"":5,""objects"":4,""invisible"":4,""chaos"":4}","","","","","","","","","","","","","","","","","[]","Nearby location of 台東小学校跡 (jp_tok-c_sch_a_1)","ChIJRW4MQI-OGGARtWvlCd2h0KY","35.7243493","139.7843592","JP","TOK","CTR","SCH","Japan, 〒110-0003 Tokyo, Taito City, Negishi, 4-chōme−1−３ 安楽寺","jp_tok-c_sch_b_1","90","jp_tok-c_sch_b_1_90"
"trial","survey","19","214728","0.0-2.0-17.0","6234ab1760a4a3d585b02e58","625e209c10a247530e1c6964","625eeafb6ae4e621e6e16465","6","12309","","{""P0_Q0"":null,""ambiguous"":5,""objects"":4,""invisible"":5,""chaos"":4}","","","","","","","","","","","","","","","","","[]","The Baltic House","XTNYC653","40.682","-73.985","US","NYC","PER","HTL","489 BALTIC STREET, BROOKLYN, NY 11217","us_nyc-p_htl_a_mid1","0","us_nyc-p_htl_a_mid1_0"
"trial","survey","20","230014","0.0-2.0-18.0","6234ab1760a4a3d585b02e58","625e209c10a247530e1c6964","625eeafb6ae4e621e6e16465","6","15264","","{""P0_Q0"":null,""ambiguous"":2,""objects"":2,""invisible"":4,""chaos"":3}","","","","","","","","","","","","","","","","","[]","Red Roof PLUS Ann Arbor-Univ North","RFARB045","42.30672","-83.69025","US","ARB","ARB","HTL","3621 PLYMOUTH ROAD, ANN ARBOR, MI 48105","us_arb_htl_a_low1","90","us_arb_htl_a_low1_90"
"trial","survey","21","254523","0.0-2.0-19.0","6234ab1760a4a3d585b02e58","625e209c10a247530e1c6964","625eeafb6ae4e621e6e16465","6","24492","","{""P0_Q0"":null,""ambiguous"":5,""objects"":3,""invisible"":3,""chaos"":4}","","","","","","","","","","","","","","","","","[]","Nearby location of Fairfield Inn and Suites by Marriott New York Manhattan Times Square (us_nyc-c_htl_a_mid1)","ChIJt_ncpFJYwokRykJpalw_bYU","40.7575246","-73.994055","US","NYC","CTR","HTL","405 W 40th St, New York, NY 10018, USA","us_nyc-c_htl_b_mid1","90","us_nyc-c_htl_b_mid1_90"
"trial","survey","22","274608","0.0-2.0-20.0","6234ab1760a4a3d585b02e58","625e209c10a247530e1c6964","625eeafb6ae4e621e6e16465","6","20067","","{""P0_Q0"":null,""ambiguous"":1,""objects"":2,""invisible"":2,""chaos"":2}","","","","","","","","","","","","","","","","","[]","Mitchell Elementary School","ChIJQYKjOkevPIgRNBcgyKyYsfs","42.2369664","-83.6929474","US","ARB","ARB","SCH","3550 Pittsview Dr, Ann Arbor, MI 48108, USA","us_arb_sch_a_4","180","us_arb_sch_a_4_180"
"trial","survey","23","294130","0.0-2.0-21.0","6234ab1760a4a3d585b02e58","625e209c10a247530e1c6964","625eeafb6ae4e621e6e16465","6","19499","","{""P0_Q0"":null,""ambiguous"":1,""objects"":1,""invisible"":1,""chaos"":2}","","","","","","","","","","","","","","","","","[]","Nearby location of Aijitsu Elementary School (jp_tok-c_sch_a_5)","ChIJn0gJcliMGGARx62E3ARcjRI","35.6987116","139.7326211","JP","TOK","CTR","SCH","2-8 Saikumachi, Shinjuku City, Tokyo 162-0838, Japan","jp_tok-c_sch_b_5","90","jp_tok-c_sch_b_5_90"
"trial","survey","24","305401","0.0-2.0-22.0","6234ab1760a4a3d585b02e58","625e209c10a247530e1c6964","625eeafb6ae4e621e6e16465","6","11254","","{""P0_Q0"":null,""ambiguous"":5,""objects"":2,""invisible"":4,""chaos"":2}","","","","","","","","","","","","","","","","","[]","Nearby location of Mitsui Garden Kyobashi Tokyo (jp_tok-c_htl_a_low2)","ChIJp2pEW_2LGGARnNNe1pDMCrc","35.6801013","139.7722917","JP","TOK","CTR","HTL","3 Chome-7 Nihonbashi, Chuo City, Tokyo 103-0027, Japan","jp_tok-c_htl_b_low2","90","jp_tok-c_htl_b_low2_90"
"trial","survey","25","320603","0.0-2.0-23.0","6234ab1760a4a3d585b02e58","625e209c10a247530e1c6964","625eeafb6ae4e621e6e16465","6","15184","","{""P0_Q0"":null,""ambiguous"":5,""objects"":4,""invisible"":5,""chaos"":4}","","","","","","","","","","","","","","","","","[]","Sakata Elementary School","ChIJVW6XQ3csAmARmDgDxmrtsD8","35.33759","136.289157","JP","HIK","HIK","SCH","508 Ukano, Maibara, Shiga 521-0062, Japan","jp_hik_sch_a_4","270","jp_hik_sch_a_4_270"
"trial","survey","26","334219","0.0-2.0-24.0","6234ab1760a4a3d585b02e58","625e209c10a247530e1c6964","625eeafb6ae4e621e6e16465","6","13598","","{""P0_Q0"":null,""ambiguous"":5,""objects"":5,""invisible"":3,""chaos"":4}","","","","","","","","","","","","","","","","","[]","Math, Language and Art Elementary Math Algebra I & II Geometry PreCalculus Calculus College Math Data Analysis","ChIJt2b18g9gwokRk8pPfW8GOkc","40.762569","-73.8314318","US","NYC","PER","SCH","123 Main St, Flushing, NY 11354, USA","us_nyc-p_sch_a_2","180","us_nyc-p_sch_a_2_180"
"trial","survey","27","349594","0.0-2.0-25.0","6234ab1760a4a3d585b02e58","625e209c10a247530e1c6964","625eeafb6ae4e621e6e16465","6","15354","","{""P0_Q0"":null,""ambiguous"":5,""objects"":3,""invisible"":2,""chaos"":3}","","","","","","","","","","","","","","","","","[]","Nearby location of Mercer Hotel (us_nyc-c_htl_a_ultra2)","ChIJBQxsB49ZwokRbGyFLxfuImc","40.7247177","-73.9975539","US","NYC","CTR","HTL","570 Broadway, New York, NY 10012, USA","us_nyc-c_htl_b_ultra2","180","us_nyc-c_htl_b_ultra2_180"
"trial","survey","28","363093","0.0-2.0-26.0","6234ab1760a4a3d585b02e58","625e209c10a247530e1c6964","625eeafb6ae4e621e6e16465","6","13477","","{""P0_Q0"":null,""ambiguous"":5,""objects"":3,""invisible"":3,""chaos"":4}","","","","","","","","","","","","","","","","","[]","The Pearl NYC","XTLGATPH","40.76144","-73.98553","US","NYC","CTR","HTL","233 W 49TH ST, NEW YORK, NY 10019","us_nyc-c_htl_a_high1","90","us_nyc-c_htl_a_high1_90"
"trial","survey","29","377993","0.0-2.0-27.0","6234ab1760a4a3d585b02e58","625e209c10a247530e1c6964","625eeafb6ae4e621e6e16465","6","14877","","{""P0_Q0"":null,""ambiguous"":4,""objects"":3,""invisible"":4,""chaos"":4}","","","","","","","","","","","","","","","","","[]","Nearby location of レジーナリゾートびわ湖長浜 (jp_hik_htl_a_high2)","ChIJJclVFRspAmARIuM3ZJ4DJj4","35.3795647","136.2582185","JP","HIK","HIK","HTL","1-6-2 Kanebōchō, Nagahama, Shiga 526-0068, Japan","jp_hik_htl_b_high2","270","jp_hik_htl_b_high2_270"
"trial","survey","30","388701","0.0-2.0-28.0","6234ab1760a4a3d585b02e58","625e209c10a247530e1c6964","625eeafb6ae4e621e6e16465","6","10691","","{""P0_Q0"":null,""ambiguous"":4,""objects"":4,""invisible"":3,""chaos"":5}","","","","","","","","","","","","","","","","","[]","BASIS Independent Manhattan","ChIJcxgyLyf2wokRA7fDLLpP4Co","40.7945131","-73.9660392","US","NYC","CTR","SCH","795 Columbus Ave, New York, NY 10025, USA","us_nyc-c_sch_a_1","90","us_nyc-c_sch_a_1_90"
"trial","survey","31","402747","0.0-2.0-29.0","6234ab1760a4a3d585b02e58","625e209c10a247530e1c6964","625eeafb6ae4e621e6e16465","6","14024","","{""P0_Q0"":null,""ambiguous"":4,""objects"":1,""invisible"":5,""chaos"":3}","","","","","","","","","","","","","","","","","[]","Mukaihara Elementary School","ChIJr51ciUjtGGARi9CcLnWMRwg","35.7416333","139.6818636","JP","TOK","PER","SCH","2-chōme-34-1 Mukaihara, Itabashi City, Tokyo 173-0036, Japan","jp_tok-p_sch_a_4","90","jp_tok-p_sch_a_4_90"
"trial","survey","32","415130","0.0-2.0-30.0","6234ab1760a4a3d585b02e58","625e209c10a247530e1c6964","625eeafb6ae4e621e6e16465","6","12365","","{""P0_Q0"":null,""ambiguous"":4,""objects"":2,""invisible"":3,""chaos"":3}","","","","","","","","","","","","","","","","","[]","Nearby location of Hilton Garden Inn New York/Manhattan-Midtown East (us_nyc-c_htl_a_low2)","ChIJp7rOeORYwokR0fuDKJJiHkw","40.7579935","-73.9679168","US","NYC","CTR","HTL","223 E 54th St, New York, NY 10022, USA","us_nyc-c_htl_b_low2","0","us_nyc-c_htl_b_low2_0"
"trial","survey","33","426697","0.0-2.0-31.0","6234ab1760a4a3d585b02e58","625e209c10a247530e1c6964","625eeafb6ae4e621e6e16465","6","11550","","{""P0_Q0"":null,""ambiguous"":5,""objects"":2,""invisible"":4,""chaos"":4}","","","","","","","","","","","","","","","","","[]","Hotel Kaito","ChIJSw_1QTuSAWARZz9bnjVtA6Q","35.3989028","136.0315856","JP","HIK","HIK","HTL","Japan, 〒520-1631 Shiga, Takashima, Imazuchō Nakoji, 1-chōme−６−１０","jp_hik_htl_a_low2","90","jp_hik_htl_a_low2_90"
"trial","survey","34","438214","0.0-2.0-32.0","6234ab1760a4a3d585b02e58","625e209c10a247530e1c6964","625eeafb6ae4e621e6e16465","6","11499","","{""P0_Q0"":null,""ambiguous"":5,""objects"":5,""invisible"":3,""chaos"":5}","","","","","","","","","","","","","","","","","[]","ORCHARD STREET HOTEL","PWNYC109","40.72117","-73.98894","US","NYC","CTR","HTL","163 ORCHARD STREET, NEW YORK, NY 10002","us_nyc-c_htl_a_low1","0","us_nyc-c_htl_a_low1_0"
"trial","survey","35","452613","0.0-2.0-33.0","6234ab1760a4a3d585b02e58","625e209c10a247530e1c6964","625eeafb6ae4e621e6e16465","6","14377","","{""P0_Q0"":null,""ambiguous"":3,""objects"":4,""invisible"":5,""chaos"":4}","","","","","","","","","","","","","","","","","[]","Nearby location of USPS Bayside Carrier Annex (us_nyc-p_pos_a_1)","ChIJj8ldGeJhwokRyuFg0UTPpzA","40.762488","-73.7649895","US","NYC","PER","POS","217-03 43rd Ave, Queens, NY 11361, USA","us_nyc-p_pos_b_1","270","us_nyc-p_pos_b_1_270"
"trial","survey","36","466661","0.0-2.0-34.0","6234ab1760a4a3d585b02e58","625e209c10a247530e1c6964","625eeafb6ae4e621e6e16465","6","14030","","{""P0_Q0"":null,""ambiguous"":3,""objects"":5,""invisible"":4,""chaos"":4}","","","","","","","","","","","","","","","","","[]","Math, Language and Art Elementary Math Algebra I & II Geometry PreCalculus Calculus College Math Data Analysis","ChIJt2b18g9gwokRk8pPfW8GOkc","40.762569","-73.8314318","US","NYC","PER","SCH","123 Main St, Flushing, NY 11354, USA","us_nyc-p_sch_a_2","0","us_nyc-p_sch_a_2_0"
"trial","survey","37","482508","0.0-2.0-35.0","6234ab1760a4a3d585b02e58","625e209c10a247530e1c6964","625eeafb6ae4e621e6e16465","6","15829","","{""P0_Q0"":null,""ambiguous"":5,""objects"":3,""invisible"":2,""chaos"":2}","","","","","","","","","","","","","","","","","[]","Higashi-Asakusa Elementary School","ChIJQ2511u2OGGAR0Tk3tO-VmJw","35.724431","139.798207","JP","TOK","CTR","SCH","2-chōme-27-19 Higashiasakusa, Taito City, Tokyo 111-0025, Japan","jp_tok-c_sch_a_8","180","jp_tok-c_sch_a_8_180"
"trial","survey","38","496701","0.0-2.0-36.0","6234ab1760a4a3d585b02e58","625e209c10a247530e1c6964","625eeafb6ae4e621e6e16465","6","14171","","{""P0_Q0"":null,""ambiguous"":4,""objects"":3,""invisible"":3,""chaos"":2}","","","","","","","","","","","","","","","","","[]","Nearby location of Sasazuka Elementary School (jp_tok-c_sch_a_6)","ChIJcyp_VT3zGGARh4qzbdhRhms","35.6750919","139.6707803","JP","TOK","CTR","SCH","Japan, 〒151-0073 Tokyo, Shibuya City, Sasazuka, 1-chōme−52−３ ルアンビル","jp_tok-c_sch_b_6","180","jp_tok-c_sch_b_6_180"
"trial","survey","39","507360","0.0-2.0-37.0","6234ab1760a4a3d585b02e58","625e209c10a247530e1c6964","625eeafb6ae4e621e6e16465","6","10637","","{""P0_Q0"":null,""ambiguous"":5,""objects"":3,""invisible"":2,""chaos"":4}","","","","","","","","","","","","","","","","","[]","THOMPSON CENTRAL PARK - NEW YORK","HYNYCPAH","40.76418","-73.97855","US","NYC","CTR","HTL","119 WEST 56 STREET, NEW YORK, NY 10019","us_nyc-c_htl_a_high2","270","us_nyc-c_htl_a_high2_270"
"trial","survey","40","527743","0.0-2.0-38.0","6234ab1760a4a3d585b02e58","625e209c10a247530e1c6964","625eeafb6ae4e621e6e16465","6","20364","","{""P0_Q0"":null,""ambiguous"":2,""objects"":3,""invisible"":3,""chaos"":3}","","","","","","","","","","","","","","","","","[]","Hilton New York JFK Airport, NY","HHJFK153","40.66771","-73.79584","US","NYC","PER","HTL","144 02 135TH AVENUE, JAMAICA, NY 11436","us_nyc-p_htl_a_mid2","90","us_nyc-p_htl_a_mid2_90"
"trial","survey","41","540665","0.0-2.0-39.0","6234ab1760a4a3d585b02e58","625e209c10a247530e1c6964","625eeafb6ae4e621e6e16465","6","12900","","{""P0_Q0"":null,""ambiguous"":5,""objects"":4,""invisible"":5,""chaos"":4}","","","","","","","","","","","","","","","","","[]","Nearby location of PS 146 Anna M. Short School (us_nyc-c_sch_a_5)","ChIJ2YTRCqpYwokRoILxg84fVx0","40.788425","-73.9404164","US","NYC","CTR","SCH","416 E 105th St, New York, NY 10029, USA","us_nyc-c_sch_b_5","270","us_nyc-c_sch_b_5_270"
"attention-check","survey","42","543452","0.0-2.0-40.0","6234ab1760a4a3d585b02e58","625e209c10a247530e1c6964","625eeafb6ae4e621e6e16465","6","2771","","{""P0_Q0"":null,""ambiguous"":null,""objects"":null,""invisible"":null,""chaos"":null}","","","","","","","","","","","","","","","","","[]","","","","","","","","","","","",""
"half-way","html-button-response","43","559207","0.0-2.0-41.0","6234ab1760a4a3d585b02e58","625e209c10a247530e1c6964","625eeafb6ae4e621e6e16465","6","null","
            <h3>You are now half way through the study.</h3>
            <p>Please take a quick, 15-second break before you continue.</p>
            <img src='assets/img/countdown-15.gif'>
            <p>The study will automatically advance forward after the countdown is complete. However, you may click ""Next"" to advance forward now if you wish.</p>
        ","null","","","","","","","","","","","","","","","","","","","","","","","","","","","","",""
"trial","survey","44","625552","0.0-2.0-42.0","6234ab1760a4a3d585b02e58","625e209c10a247530e1c6964","625eeafb6ae4e621e6e16465","6","66309","","{""P0_Q0"":null,""ambiguous"":5,""objects"":5,""invisible"":5,""chaos"":5}","","","","","","","","","","","","","","","","","[]","Nearby location of Waseda Daigaku-mae Post Office (jp_hik_pos_a_4)","ChIJ3fFikwKNGGARdbidMhgiTgs","35.7066137","139.7233789","JP","HIK","HIK","POS","508 Wasedatsurumakichō, Shinjuku City, Tokyo 162-0041, Japan","jp_hik_pos_b_4","90","jp_hik_pos_b_4_90"
"trial","survey","45","637166","0.0-2.0-43.0","6234ab1760a4a3d585b02e58","625e209c10a247530e1c6964","625eeafb6ae4e621e6e16465","6","11592","","{""P0_Q0"":null,""ambiguous"":5,""objects"":3,""invisible"":3,""chaos"":4}","","","","","","","","","","","","","","","","","[]","Mandarin Oriental New York","MONYCMO1","40.7689","-73.98305","US","NYC","CTR","HTL","80  COLUMBUS CIRCLE AT 60TH STREET, NEW YORK, NY 10023","us_nyc-c_htl_a_ultra1","270","us_nyc-c_htl_a_ultra1_270"
"trial","survey","46","650509","0.0-2.0-44.0","6234ab1760a4a3d585b02e58","625e209c10a247530e1c6964","625eeafb6ae4e621e6e16465","6","13326","","{""P0_Q0"":null,""ambiguous"":5,""objects"":2,""invisible"":5,""chaos"":4}","","","","","","","","","","","","","","","","","[]","Nearby location of William O'Shea Campus (us_nyc-c_sch_a_6)","ChIJpefuOY9YwokR-Pk3vGiQNI4","40.7819913","-73.9762638","US","NYC","CTR","SCH","118 W 79th St, New York, NY 10024, USA","us_nyc-c_sch_b_6","180","us_nyc-c_sch_b_6_180"
"trial","survey","47","679518","0.0-2.0-45.0","6234ab1760a4a3d585b02e58","625e209c10a247530e1c6964","625eeafb6ae4e621e6e16465","6","28993","","{""P0_Q0"":null,""ambiguous"":4,""objects"":2,""invisible"":2,""chaos"":2}","","","","","","","","","","","","","","","","","[]","Rakuten STAY HOUSE×WILLSTYLE 八幡堀","ChIJ29I3jA95AWAR_5xuRG3klyw","35.1418554","136.0963056","JP","HIK","HIK","HTL","580-6 Tagachō, Omihachiman, Shiga 523-0821, Japan","jp_hik_htl_a_high1","180","jp_hik_htl_a_high1_180"
"trial","survey","48","693456","0.0-2.0-46.0","6234ab1760a4a3d585b02e58","625e209c10a247530e1c6964","625eeafb6ae4e621e6e16465","6","13916","","{""P0_Q0"":null,""ambiguous"":4,""objects"":2,""invisible"":3,""chaos"":3}","","","","","","","","","","","","","","","","","[]","Nihonbashi Elementary School","ChIJdXahT1CJGGARlBMGrWteCyU","35.684732","139.781385","JP","TOK","CTR","SCH","1-chōme-1-17 Nihonbashiningyōchō, Chuo City, Tokyo 103-0013, Japan","jp_tok-c_sch_a_7","90","jp_tok-c_sch_a_7_90"
"trial","survey","49","706797","0.0-2.0-47.0","6234ab1760a4a3d585b02e58","625e209c10a247530e1c6964","625eeafb6ae4e621e6e16465","6","13323","","{""P0_Q0"":null,""ambiguous"":4,""objects"":2,""invisible"":4,""chaos"":2}","","","","","","","","","","","","","","","","","[]","Katsushika City Iizuka Elementary School","ChIJXWuTk2CFGGARG2Rud6f0E18","35.7767025","139.8582864","JP","TOK","PER","SCH","1-chōme-13-1 Minamimizumoto, Katsushika City, Tokyo 125-0035, Japan","jp_tok-p_sch_a_3","90","jp_tok-p_sch_a_3_90"
"trial","survey","50","731418","0.0-2.0-48.0","6234ab1760a4a3d585b02e58","625e209c10a247530e1c6964","625eeafb6ae4e621e6e16465","6","24604","","{""P0_Q0"":null,""ambiguous"":3,""objects"":3,""invisible"":2,""chaos"":3}","","","","","","","","","","","","","","","","","[]","Nearby location of The Baltic House (us_nyc-p_htl_a_mid1)","ChIJz1earlRawokRerP6Itd2JDg","40.6806771","-73.9836973","US","NYC","PER","HTL","175 3rd Ave, Brooklyn, NY 11217, USA","us_nyc-p_htl_b_mid1","90","us_nyc-p_htl_b_mid1_90"
"trial","survey","51","749611","0.0-2.0-49.0","6234ab1760a4a3d585b02e58","625e209c10a247530e1c6964","625eeafb6ae4e621e6e16465","6","18176","","{""P0_Q0"":null,""ambiguous"":4,""objects"":1,""invisible"":2,""chaos"":3}","","","","","","","","","","","","","","","","","[]","Nearby location of Tokyo High Court Post Office (jp_tok-c_pos_a_1)","ChIJX7W2HiiLGGARCTbu8qla3Mw","35.6737726","139.7542634","JP","TOK","CTR","POS","1 Hibiyakoen, Chiyoda City, Tokyo 100-0012, Japan","jp_tok-c_pos_b_1","90","jp_tok-c_pos_b_1_90"
"trial","survey","52","764060","0.0-2.0-50.0","6234ab1760a4a3d585b02e58","625e209c10a247530e1c6964","625eeafb6ae4e621e6e16465","6","14426","","{""P0_Q0"":null,""ambiguous"":4,""objects"":4,""invisible"":4,""chaos"":5}","","","","","","","","","","","","","","","","","[]","Bunkyo Otsuka 3 Post Office","ChIJ2xa06qWNGGARyOBmGzqDPvY","35.7218144","139.7382888","JP","TOK","CTR","POS","3-chōme-39-7 Ōtsuka, Bunkyo City, Tokyo 112-0012, Japan","jp_tok-c_pos_a_7","180","jp_tok-c_pos_a_7_180"
"trial","survey","53","775402","0.0-2.0-51.0","6234ab1760a4a3d585b02e58","625e209c10a247530e1c6964","625eeafb6ae4e621e6e16465","6","11326","","{""P0_Q0"":null,""ambiguous"":5,""objects"":2,""invisible"":4,""chaos"":2}","","","","","","","","","","","","","","","","","[]","Nearby location of Tokyo High Court Post Office (jp_tok-c_pos_a_1)","ChIJX7W2HiiLGGARCTbu8qla3Mw","35.6737726","139.7542634","JP","TOK","CTR","POS","1 Hibiyakoen, Chiyoda City, Tokyo 100-0012, Japan","jp_tok-c_pos_b_1","270","jp_tok-c_pos_b_1_270"
"trial","survey","54","787420","0.0-2.0-52.0","6234ab1760a4a3d585b02e58","625e209c10a247530e1c6964","625eeafb6ae4e621e6e16465","6","11996","","{""P0_Q0"":null,""ambiguous"":2,""objects"":1,""invisible"":3,""chaos"":3}","","","","","","","","","","","","","","","","","[]","Ryōgoku Post Office","ChIJ-792HbOOGGARe1sZkDax64U","35.6954419","139.7857167","JP","TOK","CTR","POS","2-chōme-27-12 Higashinihonbashi, Chuo City, Tokyo 103-0004, Japan","jp_tok-c_pos_a_5","180","jp_tok-c_pos_a_5_180"
"trial","survey","55","801801","0.0-2.0-53.0","6234ab1760a4a3d585b02e58","625e209c10a247530e1c6964","625eeafb6ae4e621e6e16465","6","14364","","{""P0_Q0"":null,""ambiguous"":4,""objects"":1,""invisible"":2,""chaos"":2}","","","","","","","","","","","","","","","","","[]","Nearby location of HOTEL K5 (jp_tok-c_htl_a_mid1)","ChIJb-Z94FCJGGARIe-5JBrSwok","35.6841632","139.7792313","JP","TOK","CTR","HTL","19-12 Nihonbashikoamichō, Chuo City, Tokyo 103-0016, Japan","jp_tok-c_htl_b_mid1","0","jp_tok-c_htl_b_mid1_0"
"trial","survey","56","823598","0.0-2.0-54.0","6234ab1760a4a3d585b02e58","625e209c10a247530e1c6964","625eeafb6ae4e621e6e16465","6","21779","","{""P0_Q0"":null,""ambiguous"":3,""objects"":3,""invisible"":3,""chaos"":3}","","","","","","","","","","","","","","","","","[]","Nearby location of Tsukishima 2nd Elementary School (jp_tok-c_sch_a_3)","ChIJHxLhHn2JGGARc3bs4ikCKls","35.660785","139.775206","JP","TOK","CTR","SCH","1-chōme-13-13-1 Kachidoki, Chuo City, Tokyo 104-0054, Japan","jp_tok-c_sch_b_3","90","jp_tok-c_sch_b_3_90"
"trial","survey","57","838472","0.0-2.0-55.0","6234ab1760a4a3d585b02e58","625e209c10a247530e1c6964","625eeafb6ae4e621e6e16465","6","14853","","{""P0_Q0"":null,""ambiguous"":5,""objects"":2,""invisible"":2,""chaos"":2}","","","","","","","","","","","","","","","","","[]","Nihonbashi Elementary School","ChIJdXahT1CJGGARlBMGrWteCyU","35.684732","139.781385","JP","TOK","CTR","SCH","1-chōme-1-17 Nihonbashiningyōchō, Chuo City, Tokyo 103-0013, Japan","jp_tok-c_sch_a_7","270","jp_tok-c_sch_a_7_270"
"trial","survey","58","853337","0.0-2.0-56.0","6234ab1760a4a3d585b02e58","625e209c10a247530e1c6964","625eeafb6ae4e621e6e16465","6","14847","","{""P0_Q0"":null,""ambiguous"":4,""objects"":1,""invisible"":2,""chaos"":2}","","","","","","","","","","","","","","","","","[]","Nearby location of Days Inn by Wyndham Ann Arbor (us_arb_htl_a_low2)","ChIJMyKc2S2vPIgRmaoMJQDyUQ0","42.251289","-83.682438","US","ARB","ARB","HTL","2489 Gross Rd, Ann Arbor, MI 48108, USA","us_arb_htl_b_low2","270","us_arb_htl_b_low2_270"
"trial","survey","59","872012","0.0-2.0-57.0","6234ab1760a4a3d585b02e58","625e209c10a247530e1c6964","625eeafb6ae4e621e6e16465","6","18658","","{""P0_Q0"":null,""ambiguous"":4,""objects"":4,""invisible"":3,""chaos"":4}","","","","","","","","","","","","","","","","","[]","Ōmori Bellport Post Office","ChIJFXY_sTJgGGARZtQCo-Qdz_M","35.5888587","139.7314559","JP","HIK","HIK","POS","6-chōme-26-3 Minamiōi, Shinagawa City, Tokyo 140-0013, Japan","jp_hik_pos_a_2","0","jp_hik_pos_a_2_0"
"trial","survey","60","887539","0.0-2.0-58.0","6234ab1760a4a3d585b02e58","625e209c10a247530e1c6964","625eeafb6ae4e621e6e16465","6","15506","","{""P0_Q0"":null,""ambiguous"":5,""objects"":2,""invisible"":2,""chaos"":3}","","","","","","","","","","","","","","","","","[]","Bronx Charter School for Excellence 3","ChIJg2kj5avzwokRaKO_rPdPfu8","40.8883786","-73.8632703","US","NYC","PER","SCH","3956 Carpenter Ave, Bronx, NY 10466, USA","us_nyc-p_sch_a_6","180","us_nyc-p_sch_a_6_180"
"trial","survey","61","901802","0.0-2.0-59.0","6234ab1760a4a3d585b02e58","625e209c10a247530e1c6964","625eeafb6ae4e621e6e16465","6","14246","","{""P0_Q0"":null,""ambiguous"":4,""objects"":3,""invisible"":2,""chaos"":2}","","","","","","","","","","","","","","","","","[]","台東小学校跡","ChIJPzL6D6mPGGAROc_ZDczQMBw","35.7231123","139.7860147","JP","TOK","CTR","SCH","3-chōme-1-30 Shitaya, Taito City, Tokyo 110-0004, Japan","jp_tok-c_sch_a_1","0","jp_tok-c_sch_a_1_0"
"trial","survey","62","915080","0.0-2.0-60.0","6234ab1760a4a3d585b02e58","625e209c10a247530e1c6964","625eeafb6ae4e621e6e16465","6","13261","","{""P0_Q0"":null,""ambiguous"":5,""objects"":1,""invisible"":2,""chaos"":2}","","","","","","","","","","","","","","","","","[]","須賀谷温泉","ChIJ_4AJx3YmAmARdbO9N7D3Ofo","35.454895","136.281751","JP","TOR","TOR","HTL","36 Sugatanichō, Nagahama, Shiga 526-0277, Japan","jp_tor_htl_a_high1","180","jp_tor_htl_a_high1_180"
"trial","survey","63","931820","0.0-2.0-61.0","6234ab1760a4a3d585b02e58","625e209c10a247530e1c6964","625eeafb6ae4e621e6e16465","6","16724","","{""P0_Q0"":null,""ambiguous"":5,""objects"":1,""invisible"":2,""chaos"":2}","","","","","","","","","","","","","","","","","[]","Jonan Daini Elementary School","ChIJOzDZZm6KGGARfmI0vkKc_Kw","35.6154264","139.7461583","JP","TOK","PER","SCH","3-chōme-4-5 Higashishinagawa, Shinagawa City, Tokyo 140-0002, Japan","jp_tok-p_sch_a_5","270","jp_tok-p_sch_a_5_270"
"trial","survey","64","943232","0.0-2.0-62.0","6234ab1760a4a3d585b02e58","625e209c10a247530e1c6964","625eeafb6ae4e621e6e16465","6","11395","","{""P0_Q0"":null,""ambiguous"":3,""objects"":2,""invisible"":2,""chaos"":3}","","","","","","","","","","","","","","","","","[]","Hotel Route-Inn Nagahama Inter","ChIJmQLsstAuAmARAC8tYd9WWwc","35.3970578","136.2947216","JP","TOR","TOR","HTL","Japan, 〒526-0804 Shiga, Nagahama, Kanōchō, 字上角田884-1","jp_tor_htl_a_low1","270","jp_tor_htl_a_low1_270"
"trial","survey","65","958624","0.0-2.0-63.0","6234ab1760a4a3d585b02e58","625e209c10a247530e1c6964","625eeafb6ae4e621e6e16465","6","15375","","{""P0_Q0"":null,""ambiguous"":5,""objects"":1,""invisible"":2,""chaos"":2}","","","","","","","","","","","","","","","","","[]","Nearby location of Mercer Hotel (us_nyc-c_htl_a_ultra2)","ChIJBQxsB49ZwokRbGyFLxfuImc","40.7247177","-73.9975539","US","NYC","CTR","HTL","570 Broadway, New York, NY 10012, USA","us_nyc-c_htl_b_ultra2","270","us_nyc-c_htl_b_ultra2_270"
"trial","survey","66","979286","0.0-2.0-64.0","6234ab1760a4a3d585b02e58","625e209c10a247530e1c6964","625eeafb6ae4e621e6e16465","6","20645","","{""P0_Q0"":null,""ambiguous"":5,""objects"":2,""invisible"":3,""chaos"":1}","","","","","","","","","","","","","","","","","[]","Nearby location of Horace Mann Barnard Elementary (us_nyc-p_sch_a_1)","ChIJ9ds6urrzwokRAWUJ8d6GdJk","40.8906469","-73.9015387","US","NYC","PER","SCH","Chrysostom Hall, 4513 Manhattan College Pkwy, Bronx, NY 10471, USA","us_nyc-p_sch_b_1","0","us_nyc-p_sch_b_1_0"
"trial","survey","67","992640","0.0-2.0-65.0","6234ab1760a4a3d585b02e58","625e209c10a247530e1c6964","625eeafb6ae4e621e6e16465","6","13333","","{""P0_Q0"":null,""ambiguous"":3,""objects"":1,""invisible"":3,""chaos"":2}","","","","","","","","","","","","","","","","","[]","Nearby location of 長浜BGホテル (us_chl_htl_a_mid1)","ChIJ2S_MbyspAmARkndCsjafTIg","35.3930344","136.2840486","JP","TOR","TOR","HTL","222-1 Kawasakichō, Nagahama, Shiga 526-0846, Japan","jp_tor_htl_b_mid1","0","jp_tor_htl_b_mid1_0"
"trial","survey","68","1005869","0.0-2.0-66.0","6234ab1760a4a3d585b02e58","625e209c10a247530e1c6964","625eeafb6ae4e621e6e16465","6","13212","","{""P0_Q0"":null,""ambiguous"":5,""objects"":1,""invisible"":3,""chaos"":3}","","","","","","","","","","","","","","","","","[]","Nearby location of Katsushika City Iizuka Elementary School (jp_tok-p_sch_a_3)","ChIJ1_4-r2CFGGARraiLOcCqmco","35.7780152","139.8593261","JP","TOK","PER","SCH","Japan, 〒125-0035 Tokyo, Katsushika City, Minamimizumoto, 2-chōme−28−１６ セブンツークラッシックマンション","jp_tok-p_sch_b_3","270","jp_tok-p_sch_b_3_270"
"trial","survey","69","1015692","0.0-2.0-67.0","6234ab1760a4a3d585b02e58","625e209c10a247530e1c6964","625eeafb6ae4e621e6e16465","6","9805","","{""P0_Q0"":null,""ambiguous"":5,""objects"":3,""invisible"":4,""chaos"":4}","","","","","","","","","","","","","","","","","[]","Bunkyo Otsuka 3 Post Office","ChIJ2xa06qWNGGARyOBmGzqDPvY","35.7218144","139.7382888","JP","TOK","CTR","POS","3-chōme-39-7 Ōtsuka, Bunkyo City, Tokyo 112-0012, Japan","jp_tok-c_pos_a_7","270","jp_tok-c_pos_a_7_270"
"trial","survey","70","1026022","0.0-2.0-68.0","6234ab1760a4a3d585b02e58","625e209c10a247530e1c6964","625eeafb6ae4e621e6e16465","6","10309","","{""P0_Q0"":null,""ambiguous"":4,""objects"":3,""invisible"":2,""chaos"":2}","","","","","","","","","","","","","","","","","[]","HOTEL ALLAMANDA AOYAMA","FGTYOHAA","35.67122","139.71765","JP","TOK","CTR","HTL","2-7-13 KITA AOYAMA MINATO-KU, TOKYO 107 0061","jp_tok-c_htl_a_high1","0","jp_tok-c_htl_a_high1_0"
"trial","survey","71","1036054","0.0-2.0-69.0","6234ab1760a4a3d585b02e58","625e209c10a247530e1c6964","625eeafb6ae4e621e6e16465","6","10009","","{""P0_Q0"":null,""ambiguous"":5,""objects"":2,""invisible"":4,""chaos"":4}","","","","","","","","","","","","","","","","","[]","Comfort Inn JFK Airport","CINYC672","40.66585","-73.80762","US","NYC","PER","HTL","132-15 NASSAU EXPRESSWAY, JAMAICA, NY 11430","us_nyc-p_htl_a_low2","90","us_nyc-p_htl_a_low2_90"
"trial","survey","72","1044437","0.0-2.0-70.0","6234ab1760a4a3d585b02e58","625e209c10a247530e1c6964","625eeafb6ae4e621e6e16465","6","8363","","{""P0_Q0"":null,""ambiguous"":5,""objects"":2,""invisible"":4,""chaos"":2}","","","","","","","","","","","","","","","","","[]","Nearby location of Sandy Hook CenTer (us_nyc-c_sch_a_4)","ChIJVVVgOJFZwokRN9n4QjPq_Dc","40.731952","-73.999183","US","NYC","CTR","SCH","31 Washington Square W, New York, NY 10011, USA","us_nyc-c_sch_b_4","90","us_nyc-c_sch_b_4_90"
"trial","survey","73","1053146","0.0-2.0-71.0","6234ab1760a4a3d585b02e58","625e209c10a247530e1c6964","625eeafb6ae4e621e6e16465","6","8693","","{""P0_Q0"":null,""ambiguous"":5,""objects"":1,""invisible"":5,""chaos"":3}","","","","","","","","","","","","","","","","","[]","Nearby location of Higashi-Asakusa Elementary School (jp_tok-c_sch_a_8)","ChIJAytTi-2OGGARfOL1JBbMOoM","35.725672","139.7971627","JP","TOK","CTR","SCH","Japan, 〒111-0021 Tokyo, Taito City, Nihonzutsumi, 1-chōme−31−２ 平乃屋","jp_tok-c_sch_b_8","270","jp_tok-c_sch_b_8_270"
"trial","survey","74","1071245","0.0-2.0-72.0","6234ab1760a4a3d585b02e58","625e209c10a247530e1c6964","625eeafb6ae4e621e6e16465","6","18079","","{""P0_Q0"":null,""ambiguous"":3,""objects"":1,""invisible"":2,""chaos"":3}","","","","","","","","","","","","","","","","","[]","Nearby location of Kasai Station Post Office (jp_hik_pos_a_1)","ChIJJ6kVju2HGGAR5jpVAdpfozs","35.6644139","139.8716517","JP","HIK","HIK","POS","3-chōme-33-14 Nakakasai, Edogawa City, Tokyo 134-0083, Japan","jp_hik_pos_b_1","0","jp_hik_pos_b_1_0"
"trial","survey","75","1084465","0.0-2.0-73.0","6234ab1760a4a3d585b02e58","625e209c10a247530e1c6964","625eeafb6ae4e621e6e16465","6","13204","","{""P0_Q0"":null,""ambiguous"":4,""objects"":2,""invisible"":2,""chaos"":2}","","","","","","","","","","","","","","","","","[]","Nearby location of Horace Mann Barnard Elementary (us_nyc-p_sch_a_1)","ChIJ9ds6urrzwokRAWUJ8d6GdJk","40.8906469","-73.9015387","US","NYC","PER","SCH","Chrysostom Hall, 4513 Manhattan College Pkwy, Bronx, NY 10471, USA","us_nyc-p_sch_b_1","180","us_nyc-p_sch_b_1_180"
"trial","survey","76","1098249","0.0-2.0-74.0","6234ab1760a4a3d585b02e58","625e209c10a247530e1c6964","625eeafb6ae4e621e6e16465","6","13768","","{""P0_Q0"":null,""ambiguous"":5,""objects"":2,""invisible"":5,""chaos"":5}","","","","","","","","","","","","","","","","","[]","Nearby location of BASIS Independent Manhattan (us_nyc-c_sch_a_1)","ChIJ5ZYR6Sb2wokRg8Qj29B4aF4","40.7956348","-73.9670782","US","NYC","CTR","SCH","120 W 100th St, New York, NY 10025, USA","us_nyc-c_sch_b_1","0","us_nyc-c_sch_b_1_0"
"trial","survey","77","1113828","0.0-2.0-75.0","6234ab1760a4a3d585b02e58","625e209c10a247530e1c6964","625eeafb6ae4e621e6e16465","6","15562","","{""P0_Q0"":null,""ambiguous"":3,""objects"":3,""invisible"":2,""chaos"":4}","","","","","","","","","","","","","","","","","[]","United States Postal Service","ChIJbQAKGJ_0wokRvPFLNOncKdM","40.8535365","-73.8674033","US","NYC","PER","POS","2100 White Plains Rd FRNT 3, Bronx, NY 10462, USA","us_nyc-p_pos_a_5","0","us_nyc-p_pos_a_5_0"
"trial","survey","78","1127332","0.0-2.0-76.0","6234ab1760a4a3d585b02e58","625e209c10a247530e1c6964","625eeafb6ae4e621e6e16465","6","13485","","{""P0_Q0"":null,""ambiguous"":5,""objects"":3,""invisible"":4,""chaos"":4}","","","","","","","","","","","","","","","","","[]","United States Postal Service","ChIJRXiunQP0wokRdMaoXdky9Do","40.8589783","-73.9311402","US","NYC","CTR","POS","4558 Broadway, New York, NY 10040, USA","us_nyc-c_pos_a_5","270","us_nyc-c_pos_a_5_270"
"demographics","survey-html-form","79","1141279","0.0-2.0-77.0","6234ab1760a4a3d585b02e58","625e209c10a247530e1c6964","625eeafb6ae4e621e6e16465","6","13943","","{""age"":""25"",""gender"":""female"",""gender-self-describe"":"""",""zipcode"":""64124""}","","","","","","","","","","","","","","","","","","","","","","","","","","","","",""
"demographics","survey","80","1152578","0.0-2.0-78.0","6234ab1760a4a3d585b02e58","625e209c10a247530e1c6964","625eeafb6ae4e621e6e16465","6","11265","","{""P0_Q0"":null,""outsideUS"":""No"",""outsideUS_years"":""""}","","","","","","","","","","","","","","","","","[]","","","","","","","","","","","",""
"end-survey","survey-text","81","1157274","0.0-2.0-79.0","6234ab1760a4a3d585b02e58","625e209c10a247530e1c6964","625eeafb6ae4e621e6e16465","6","4688","","{""Q0"":""""}","","","","","","","","","","","","","","","","","","","","","","","","","","","","",""
