"task","trial_type","trial_index","time_elapsed","internal_node_id","subject_id","study_id","session_id","group","rt","stimulus","response","width","height","webaudio","browser","browser_version","mobile","os","fullscreen","vsync_rate","webcam","microphone","success","timeout","failed_images","failed_audio","failed_video","accuracy","name","place_id","lat","lng","culture","loc1","loc2","loct","address","loc_id_prev","angle","loc_id"
"pavlovia-init","pavlovia","0","1096","0.0-0.0","59f77d39b47dfc0001b660ea","626166b218b78fee4e9d8d4c","62617f49eddd18074f96a23c","13","","","","","","","","","","","","","","","","","","","","","","","","","","","","","","","",""
"consent","html-button-response","1","6421","0.0-1.0","59f77d39b47dfc0001b660ea","626166b218b78fee4e9d8d4c","62617f49eddd18074f96a23c","13","5324","
        <div style=""font-size: 80%; max-width:700px"">
            <h2>Informed Consent</h2><br>
        
            <div style=""text-align: left"">
            <h3>Streetscape Perceptions</h3>
            <b>HUM00189138</b>
            <br><hr>
        
            <h4>DESCRIPTION</h4>
            <p>
                In this study, you will view Google Street View images. You will then answer questions about your impressions of the streetscapes presented in those images.
            </p><br>
        
            <h4>TIME INVOLVEMENT</h4>
            <p>Your participation will take approximately 30 minutes.</p><br>
        
            <h4>RISKS AND BENEFITS</h4>
            <p>
                The risks associated with this study are minimal. The benefits which may reasonably be expected to result from this study are none.  We cannot and do not guarantee or promise that you will receive any benefits from this study. 
            </p><br>
        
            <h4>PAYMENTS</h4>
            <p>You will be paid <b>$5.00</b> for your participation.</p><br>
        
            <h4>SUBJECT'S RIGHTS</h4>
            <p>
                If you have read this form and have decided to participate in this project, please understand your participation is voluntary and you have the right to withdraw your consent or discontinue participation at any time without penalty or loss of benefits to which you are otherwise entitled.  The alternative is not to participate.  You have the right to refuse to answer particular questions.  
            </p>
        
            <p>
                Your individual privacy will be maintained in all published and written data resulting from the study. Your responses will be kept confidential: you are given a participant code, and no one, not even the research team, can match that code with your identity. Your collected information may also be shared with other researchers as part of our dataset.
            </p><br>
        
            <h4>CONTACT INFORMATION</h4>
            <p>
                Questions: If you have any questions, concerns or complaints about this research, its procedures, risks and benefits, contact the Protocol Director, Nicholas Camp, npcamp@umich.edu, (443) 851-6783.
            </p>
        
            <p>
                If you have questions about your rights as a research participant, or wish to obtain information, ask questions or discuss any concerns about this study with someone other than the researcher(s), please contact the following:
                <br><br>
        
                University of Michigan<br>
                Health Sciences and Behavioral Sciences Institutional Review Board
                (IRB-HSBS)<br>
                2800 Plymouth Road <br>
                Building 520, Room 1169 <br>
                Ann Arbor, MI 48109-2800 <br>
                Telephone: 734-936-0933 or toll free (866) 936-0933 <br>
                Fax: 734-936-1852 <br />
                E-mail: irbhsbs@umich.edu <br>
            </p>
        
            <p>
                You can also contact the University of Michigan Compliance Hotline at 1-866-990-0111. You may also print this consent form to keep.
            </p>
            <br>
        
            <div class=""alert alert-warning""><b>
                Do you consent to participate in this study? If you consent to participate in this study, please click “Accept and continue.”
            </b></div>
            </div>
        </div>
    ","1","","","","","","","","","","","","","","","","","","","","","","","","","","","","",""
"browser-check","browser-check","2","6809","0.0-2.0-0.0","59f77d39b47dfc0001b660ea","626166b218b78fee4e9d8d4c","62617f49eddd18074f96a23c","13","","","","1362","1022","true","chrome","100.0.4896","false","Windows 10","true","155.8","false","true","","","","","","","","","","","","","","","","","",""
"","preload","3","11294","0.0-2.0-1.0","59f77d39b47dfc0001b660ea","626166b218b78fee4e9d8d4c","62617f49eddd18074f96a23c","13","","","","","","","","","","","","","","","true","false","[]","[]","[]","","","","","","","","","","","","",""
"instructions","html-button-response","4","21135","0.0-2.0-2.0","59f77d39b47dfc0001b660ea","626166b218b78fee4e9d8d4c","62617f49eddd18074f96a23c","13","9841","
        <div class=""text-container"">
            <h1>Welcome to the study!</h1>
            
            <div class=""text-left"">
                <p>
                    In this study, we are interested in how people think about different Google Street View images. Google Street View takes pictures of streets used for Google Earth and Google Maps. You’ll see Google Street View images of different places and answer some questions about each one.
                </p>
            </div>
            
            <img src='
            https://maps.googleapis.com/maps/api/streetview?size=640x320
            &location=37.783631,-122.432766
            &heading=80
            &pitch=2
            &fov=100
            &radius=150
            &key=AIzaSyC2OxRDg6qlzZDj7j0UAD2XyE0qWokLvvs
            &source=outdoor'>
        
            <br>
        <br>
    ","0","","","","","","","","","","","","","","","","","","","","","","","","","","","","",""
"instructions","html-button-response","5","45328","0.0-2.0-3.0","59f77d39b47dfc0001b660ea","626166b218b78fee4e9d8d4c","62617f49eddd18074f96a23c","13","23891","
        <style>
            img.small {
            max-width: 100px;
            }
            li {
            text-indent: 40px;
            }
        </style>

        <div class=""text-container text-left"">
            <p>For each picture, we’d like your impressions of the scene:</p>
            
            <hr>
                Are there <b>clear, distinct boundaries</b> between objects in the scene, or are the <b>boundaries ambiguous or unclear</b>?
                
                <li>clear, distinct boundaries: <img class=""small"" src=""assets/img/ambiguous-low.png""></li>
                <li>ambiguous or unclear boundaries: <img class=""small"" src=""assets/img/ambiguous-high.png""></li>
            <hr>
            <br>
                Are there <b>only a few different objects</b> in the scene, or is there <b>a large number</b>?
            <br><br>
            <hr>
                Are only <b>a few parts</b> of the scene <b>invisible or obscured</b>, or are <b>many parts invisible or obscured</b>?
                
                <li>a few parts invisible or obscured: <img class=""small"" src=""assets/img/invisible-low.png""></li>
                <li>many parts invisible or obscured: <img class=""small"" src=""assets/img/invisible-high.png""></li>
            <hr>
            <br>
                Does the scene look <b>organized</b> or <b>chaotic</b> to you?
            <br><br>
            <hr>
            
            <p>
                There are no right or wrong answers: we are interested in <b>your</b> impression. Note that some images might have individual buildings or faces blurred for privacy. Please ignore these when making your judgments.
            </p>
        </div>
        <br>
    ","0","","","","","","","","","","","","","","","","","","","","","","","","","","","","",""
"instructions","html-button-response","6","54240","0.0-2.0-4.0","59f77d39b47dfc0001b660ea","626166b218b78fee4e9d8d4c","62617f49eddd18074f96a23c","13","8912","
        <div class=""text-container text-left"">
            <p>Please make sure you are doing this study in an area where you can focus and complete the survey in one sitting.</p>

            <p>Don’t spend too much time on any one picture, and, again go with your gut impression!</p>
            
            <p>The study should take about 30 minutes. We’ll let you know when you’re halfway through.</p>
        </div>
            
        <h3>Ready? Click next to get started!</h3>
        <br>
    ","0","","","","","","","","","","","","","","","","","","","","","","","","","","","","",""
"trial","survey","7","78522","0.0-2.0-5.0","59f77d39b47dfc0001b660ea","626166b218b78fee4e9d8d4c","62617f49eddd18074f96a23c","13","24252","","{""P0_Q0"":null,""ambiguous"":4,""objects"":3,""invisible"":1,""chaos"":2}","","","","","","","","","","","","","","","","","[]","Waseda Daigaku-mae Post Office","ChIJT2M2MgONGGARQWhBX_HTPFY","35.7080144","139.7220286","JP","HIK","HIK","POS","Japan, 〒162-0041 東京都新宿区早稲田鶴巻町５３３","jp_hik_pos_a_4","90","jp_hik_pos_a_4_90"
"trial","survey","8","97758","0.0-2.0-6.0","59f77d39b47dfc0001b660ea","626166b218b78fee4e9d8d4c","62617f49eddd18074f96a23c","13","19224","","{""P0_Q0"":null,""ambiguous"":4,""objects"":4,""invisible"":3,""chaos"":4}","","","","","","","","","","","","","","","","","[]","Jingūmae 6 Post Office","ChIJO43ODKSMGGAR5KiNqtge1mc","35.6666411","139.7050847","JP","TOK","CTR","POS","6-chōme-12-28 Jingūmae, Shibuya City, Tokyo 150-0001, Japan","jp_tok-c_pos_a_2","180","jp_tok-c_pos_a_2_180"
"trial","survey","9","111295","0.0-2.0-7.0","59f77d39b47dfc0001b660ea","626166b218b78fee4e9d8d4c","62617f49eddd18074f96a23c","13","13529","","{""P0_Q0"":null,""ambiguous"":1,""objects"":3,""invisible"":1,""chaos"":1}","","","","","","","","","","","","","","","","","[]","Nearby location of Tokyo High Court Post Office (jp_tok-c_pos_a_1)","ChIJX7W2HiiLGGARCTbu8qla3Mw","35.6737726","139.7542634","JP","TOK","CTR","POS","1 Hibiyakoen, Chiyoda City, Tokyo 100-0012, Japan","jp_tok-c_pos_b_1","270","jp_tok-c_pos_b_1_270"
"trial","survey","10","130597","0.0-2.0-8.0","59f77d39b47dfc0001b660ea","626166b218b78fee4e9d8d4c","62617f49eddd18074f96a23c","13","19294","","{""P0_Q0"":null,""ambiguous"":3,""objects"":3,""invisible"":1,""chaos"":4}","","","","","","","","","","","","","","","","","[]","Nearby location of United States Postal Service (us_nyc-p_pos_a_5)","ChIJAxFT_p70wokRYeihFIw0wFU","40.8546215","-73.8685765","US","NYC","PER","POS","625 Lydig Ave, Bronx, NY 10462, USA","us_nyc-p_pos_b_5","270","us_nyc-p_pos_b_5_270"
"trial","survey","11","138891","0.0-2.0-9.0","59f77d39b47dfc0001b660ea","626166b218b78fee4e9d8d4c","62617f49eddd18074f96a23c","13","8286","","{""P0_Q0"":null,""ambiguous"":1,""objects"":2,""invisible"":1,""chaos"":1}","","","","","","","","","","","","","","","","","[]","Nearby location of Daiwa Roynet Hotel Tokyo-Osaki (jp_tok-p_htl_a_low2)","ChIJw8m7kPSKGGAREUfz_puYZs4","35.6168084","139.7277241","JP","TOK","PER","HTL","2-chōme-9-4 Ōsaki, Shinagawa City, Tokyo 141-0032, Japan","jp_tok-p_htl_b_low2","180","jp_tok-p_htl_b_low2_180"
"trial","survey","12","148050","0.0-2.0-10.0","59f77d39b47dfc0001b660ea","626166b218b78fee4e9d8d4c","62617f49eddd18074f96a23c","13","9150","","{""P0_Q0"":null,""ambiguous"":1,""objects"":2,""invisible"":1,""chaos"":1}","","","","","","","","","","","","","","","","","[]","United States Postal Service","ChIJIRvhvPqJwokRje-X_pYcWug","40.7684345","-73.7370948","US","NYC","PER","POS","25010 Northern Blvd, Queens, NY 11362, USA","us_nyc-p_pos_a_2","90","us_nyc-p_pos_a_2_90"
"trial","survey","13","170653","0.0-2.0-11.0","59f77d39b47dfc0001b660ea","626166b218b78fee4e9d8d4c","62617f49eddd18074f96a23c","13","22595","","{""P0_Q0"":null,""ambiguous"":2,""objects"":3,""invisible"":1,""chaos"":3}","","","","","","","","","","","","","","","","","[]","Adachi Asahicho Post Office","ChIJwzPq-E2OGGAR94jgKLnB1pg","35.7492042","139.8090847","JP","TOK","PER","POS","27-13 Senjuasahichō, Adachi City, Tokyo 120-0026, Japan","jp_tok-p_pos_a_4","0","jp_tok-p_pos_a_4_0"
"trial","survey","14","195750","0.0-2.0-12.0","59f77d39b47dfc0001b660ea","626166b218b78fee4e9d8d4c","62617f49eddd18074f96a23c","13","25090","","{""P0_Q0"":null,""ambiguous"":1,""objects"":4,""invisible"":2,""chaos"":2}","","","","","","","","","","","","","","","","","[]","Manually Updated Jittered SV for Nearby location of Marunouchi Center Bldg. Post Office (jp_tok-c_pos_a_8) (jp_tok-c_pos_b_8)","ChIJnUcMGviLGGAROCgXeJNX4xg","35.685418","139.762932","JP","TOK","CTR","POS","1-chōme-1 Ōtemachi, Chiyoda City, Tokyo 100-0004, Japan","jp_tok-c_pos_b_8","270","jp_tok-c_pos_b_8_270"
"trial","survey","15","217514","0.0-2.0-13.0","59f77d39b47dfc0001b660ea","626166b218b78fee4e9d8d4c","62617f49eddd18074f96a23c","13","21755","","{""P0_Q0"":null,""ambiguous"":1,""objects"":3,""invisible"":1,""chaos"":2}","","","","","","","","","","","","","","","","","[]","Nearby location of Ryōgoku Post Office (jp_tok-c_pos_a_5)","ChIJBRNSarKOGGARKk3b5BlK71s","35.696528","139.784235","JP","TOK","CTR","POS","Japan, 〒111-0053 Tokyo, Taito City, Asakusabashi, 1-chōme−2−８ 丸一ビル","jp_tok-c_pos_b_5","90","jp_tok-c_pos_b_5_90"
"trial","survey","16","229663","0.0-2.0-14.0","59f77d39b47dfc0001b660ea","626166b218b78fee4e9d8d4c","62617f49eddd18074f96a23c","13","12142","","{""P0_Q0"":null,""ambiguous"":1,""objects"":2,""invisible"":1,""chaos"":1}","","","","","","","","","","","","","","","","","[]","Nihonbashi Elementary School","ChIJdXahT1CJGGARlBMGrWteCyU","35.684732","139.781385","JP","TOK","CTR","SCH","1-chōme-1-17 Nihonbashiningyōchō, Chuo City, Tokyo 103-0013, Japan","jp_tok-c_sch_a_7","270","jp_tok-c_sch_a_7_270"
"trial","survey","17","244183","0.0-2.0-15.0","59f77d39b47dfc0001b660ea","626166b218b78fee4e9d8d4c","62617f49eddd18074f96a23c","13","14514","","{""P0_Q0"":null,""ambiguous"":4,""objects"":2,""invisible"":1,""chaos"":2}","","","","","","","","","","","","","","","","","[]","Nearby location of Courtyard by Marriott New York Manhattan Fifth Avenue (us_nyc-c_htl_a_mid2)","ChIJ5Yg_sQBZwokRHhiGwRT771k","40.750592","-73.982198","US","NYC","CTR","HTL","6 E 38th St, New York, NY 10016, USA","us_nyc-c_htl_b_mid2","0","us_nyc-c_htl_b_mid2_0"
"trial","survey","18","262200","0.0-2.0-16.0","59f77d39b47dfc0001b660ea","626166b218b78fee4e9d8d4c","62617f49eddd18074f96a23c","13","18009","","{""P0_Q0"":null,""ambiguous"":4,""objects"":4,""invisible"":1,""chaos"":4}","","","","","","","","","","","","","","","","","[]","Nearby location of Adahi Sano Post Office (jp_hik_pos_a_3)","ChIJ687ZfeOPGGARr0sg29_jaNA","35.7854552","139.8422615","JP","HIK","HIK","POS","1-chōme-19-3 Sano, Adachi City, Tokyo 121-0053, Japan","jp_hik_pos_b_3","0","jp_hik_pos_b_3_0"
"trial","survey","19","276383","0.0-2.0-17.0","59f77d39b47dfc0001b660ea","626166b218b78fee4e9d8d4c","62617f49eddd18074f96a23c","13","14176","","{""P0_Q0"":null,""ambiguous"":2,""objects"":2,""invisible"":1,""chaos"":2}","","","","","","","","","","","","","","","","","[]","Shinshuku Elementary School","ChIJM1VHO19gGGARYHbYkz0tS8E","35.5572368","139.7158925","JP","TOK","PER","SCH","1-chōme-5-1 Kamatahonchō, Ota City, Tokyo 144-0053, Japan","jp_tok-p_sch_a_2","90","jp_tok-p_sch_a_2_90"
"trial","survey","20","289486","0.0-2.0-18.0","59f77d39b47dfc0001b660ea","626166b218b78fee4e9d8d4c","62617f49eddd18074f96a23c","13","13094","","{""P0_Q0"":null,""ambiguous"":1,""objects"":1,""invisible"":1,""chaos"":1}","","","","","","","","","","","","","","","","","[]","Nearby location of Tsukishima 2nd Elementary School (jp_tok-c_sch_a_3)","ChIJHxLhHn2JGGARc3bs4ikCKls","35.660785","139.775206","JP","TOK","CTR","SCH","1-chōme-13-13-1 Kachidoki, Chuo City, Tokyo 104-0054, Japan","jp_tok-c_sch_b_3","0","jp_tok-c_sch_b_3_0"
"trial","survey","21","300458","0.0-2.0-19.0","59f77d39b47dfc0001b660ea","626166b218b78fee4e9d8d4c","62617f49eddd18074f96a23c","13","10963","","{""P0_Q0"":null,""ambiguous"":1,""objects"":3,""invisible"":1,""chaos"":2}","","","","","","","","","","","","","","","","","[]","Nearby location of Bell Tower Hotel (us_arb_htl_a_high2)","ChIJuS95eUCuPIgRE9IqLokaozs","42.280115","-83.7411408","US","ARB","ARB","HTL","200 S State St, Ann Arbor, MI 48104, USA","us_arb_htl_b_high2","180","us_arb_htl_b_high2_180"
"trial","survey","22","322185","0.0-2.0-20.0","59f77d39b47dfc0001b660ea","626166b218b78fee4e9d8d4c","62617f49eddd18074f96a23c","13","21720","","{""P0_Q0"":null,""ambiguous"":2,""objects"":3,""invisible"":1,""chaos"":1}","","","","","","","","","","","","","","","","","[]","Nearby location of Adachi Asahicho Post Office (jp_tok-p_pos_a_4)","ChIJhXM9R1KOGGAR7zoOSZK_VIU","35.7480131","139.8100604","JP","TOK","PER","POS","Japan, 〒120-0026 Tokyo, Adachi City, Senjuasahichō, 22−９ コーポ山田","jp_tok-p_pos_b_4","180","jp_tok-p_pos_b_4_180"
"trial","survey","23","333043","0.0-2.0-21.0","59f77d39b47dfc0001b660ea","626166b218b78fee4e9d8d4c","62617f49eddd18074f96a23c","13","10851","","{""P0_Q0"":null,""ambiguous"":2,""objects"":1,""invisible"":1,""chaos"":1}","","","","","","","","","","","","","","","","","[]","Nearby location of Oizumi Daini Elementary School (jp_tok-p_sch_a_6)","ChIJMaeqHtruGGARm4LZU_WxHzQ","35.7454686","139.5741349","JP","TOK","PER","SCH","4-chōme-32-2 Minamiōizumi, Nerima City, Tokyo 178-0064, Japan","jp_tok-p_sch_b_6","90","jp_tok-p_sch_b_6_90"
"trial","survey","24","343570","0.0-2.0-22.0","59f77d39b47dfc0001b660ea","626166b218b78fee4e9d8d4c","62617f49eddd18074f96a23c","13","10521","","{""P0_Q0"":null,""ambiguous"":2,""objects"":1,""invisible"":1,""chaos"":1}","","","","","","","","","","","","","","","","","[]","Quality Inn and Suites Ann Arbor Hwy 23","QIARB356","42.25224","-83.68168","US","ARB","ARB","HTL","2376 CARPENTER ROAD, ANN ARBOR, MI 48018","us_arb_htl_a_mid2","0","us_arb_htl_a_mid2_0"
"trial","survey","25","353672","0.0-2.0-23.0","59f77d39b47dfc0001b660ea","626166b218b78fee4e9d8d4c","62617f49eddd18074f96a23c","13","10095","","{""P0_Q0"":null,""ambiguous"":2,""objects"":4,""invisible"":1,""chaos"":2}","","","","","","","","","","","","","","","","","[]","Nearby location of Torahime Post Office (jp_tor_pos_a_1)","ChIJgxpx9J4oAmARIkc4T1H6KS0","35.420504","136.263204","JP","TOR","TOR","POS","171-3 Gomura, Nagahama, Shiga 529-0141, Japan","jp_tor_pos_b_1","270","jp_tor_pos_b_1_270"
"trial","survey","26","370277","0.0-2.0-24.0","59f77d39b47dfc0001b660ea","626166b218b78fee4e9d8d4c","62617f49eddd18074f96a23c","13","16600","","{""P0_Q0"":null,""ambiguous"":3,""objects"":3,""invisible"":1,""chaos"":4}","","","","","","","","","","","","","","","","","[]","Nearby location of Success Academy Harlem 5 (us_nyc-c_sch_a_2)","ChIJT3PK4nr2wokRoJ2P1lBcwyQ","40.8213713","-73.9455112","US","NYC","CTR","SCH","351 W 141st St, New York, NY 10030, USA","us_nyc-c_sch_b_2","0","us_nyc-c_sch_b_2_0"
"trial","survey","27","382115","0.0-2.0-25.0","59f77d39b47dfc0001b660ea","626166b218b78fee4e9d8d4c","62617f49eddd18074f96a23c","13","11829","","{""P0_Q0"":null,""ambiguous"":1,""objects"":3,""invisible"":1,""chaos"":2}","","","","","","","","","","","","","","","","","[]","Nearby location of レジーナリゾートびわ湖長浜 (jp_hik_htl_a_high2)","ChIJJclVFRspAmARIuM3ZJ4DJj4","35.3795647","136.2582185","JP","HIK","HIK","HTL","1-6-2 Kanebōchō, Nagahama, Shiga 526-0068, Japan","jp_hik_htl_b_high2","0","jp_hik_htl_b_high2_0"
"trial","survey","28","395880","0.0-2.0-26.0","59f77d39b47dfc0001b660ea","626166b218b78fee4e9d8d4c","62617f49eddd18074f96a23c","13","13756","","{""P0_Q0"":null,""ambiguous"":2,""objects"":3,""invisible"":1,""chaos"":2}","","","","","","","","","","","","","","","","","[]","United States Postal Service","ChIJRXiunQP0wokRdMaoXdky9Do","40.8589783","-73.9311402","US","NYC","CTR","POS","4558 Broadway, New York, NY 10040, USA","us_nyc-c_pos_a_5","0","us_nyc-c_pos_a_5_0"
"trial","survey","29","409338","0.0-2.0-27.0","59f77d39b47dfc0001b660ea","626166b218b78fee4e9d8d4c","62617f49eddd18074f96a23c","13","13450","","{""P0_Q0"":null,""ambiguous"":3,""objects"":1,""invisible"":1,""chaos"":2}","","","","","","","","","","","","","","","","","[]","Mukaihara Elementary School","ChIJr51ciUjtGGARi9CcLnWMRwg","35.7416333","139.6818636","JP","TOK","PER","SCH","2-chōme-34-1 Mukaihara, Itabashi City, Tokyo 173-0036, Japan","jp_tok-p_sch_a_4","180","jp_tok-p_sch_a_4_180"
"trial","survey","30","422707","0.0-2.0-28.0","59f77d39b47dfc0001b660ea","626166b218b78fee4e9d8d4c","62617f49eddd18074f96a23c","13","13364","","{""P0_Q0"":null,""ambiguous"":4,""objects"":3,""invisible"":1,""chaos"":3}","","","","","","","","","","","","","","","","","[]","Waseda Daigaku-mae Post Office","ChIJT2M2MgONGGARQWhBX_HTPFY","35.7080144","139.7220286","JP","HIK","HIK","POS","Japan, 〒162-0041 東京都新宿区早稲田鶴巻町５３３","jp_hik_pos_a_4","270","jp_hik_pos_a_4_270"
"trial","survey","31","439427","0.0-2.0-29.0","59f77d39b47dfc0001b660ea","626166b218b78fee4e9d8d4c","62617f49eddd18074f96a23c","13","16714","","{""P0_Q0"":null,""ambiguous"":4,""objects"":1,""invisible"":1,""chaos"":3}","","","","","","","","","","","","","","","","","[]","Hotel JAL City Tokyo Toyosu","NKTYOHJC","35.68408","139.80885","JP","TOK","PER","HTL","6 4 20 TOYOSU KOTO KU, TOKYO 1350061","jp_tok-p_htl_a_mid1","90","jp_tok-p_htl_a_mid1_90"
"trial","survey","32","452269","0.0-2.0-30.0","59f77d39b47dfc0001b660ea","626166b218b78fee4e9d8d4c","62617f49eddd18074f96a23c","13","12834","","{""P0_Q0"":null,""ambiguous"":1,""objects"":1,""invisible"":1,""chaos"":2}","","","","","","","","","","","","","","","","","[]","Sakata Elementary School","ChIJVW6XQ3csAmARmDgDxmrtsD8","35.33759","136.289157","JP","HIK","HIK","SCH","508 Ukano, Maibara, Shiga 521-0062, Japan","jp_hik_sch_a_4","90","jp_hik_sch_a_4_90"
"trial","survey","33","461211","0.0-2.0-31.0","59f77d39b47dfc0001b660ea","626166b218b78fee4e9d8d4c","62617f49eddd18074f96a23c","13","8935","","{""P0_Q0"":null,""ambiguous"":1,""objects"":2,""invisible"":1,""chaos"":1}","","","","","","","","","","","","","","","","","[]","Nearby location of Kakezuka Elementary School (jp_tok-c_sch_a_4)","ChIJZ3Y9uRWLGGAR3VkcUPtDdr0","35.6430912","139.71302","JP","TOK","CTR","SCH","4 Chome-20 Ebisu, Shibuya City, Tokyo 150-0013, Japan","jp_tok-c_sch_b_4","90","jp_tok-c_sch_b_4_90"
"trial","survey","34","488194","0.0-2.0-32.0","59f77d39b47dfc0001b660ea","626166b218b78fee4e9d8d4c","62617f49eddd18074f96a23c","13","26975","","{""P0_Q0"":null,""ambiguous"":2,""objects"":4,""invisible"":1,""chaos"":4}","","","","","","","","","","","","","","","","","[]","United States Postal Service","ChIJb5pfwxb2wokR4-EvJ1w0znA","40.8036447","-73.9541827","US","NYC","CTR","POS","232 W 116th St, New York, NY 10026, USA","us_nyc-c_pos_a_7","270","us_nyc-c_pos_a_7_270"
"trial","survey","35","497599","0.0-2.0-33.0","59f77d39b47dfc0001b660ea","626166b218b78fee4e9d8d4c","62617f49eddd18074f96a23c","13","9396","","{""P0_Q0"":null,""ambiguous"":2,""objects"":2,""invisible"":1,""chaos"":3}","","","","","","","","","","","","","","","","","[]","United States Postal Service","ChIJbQAKGJ_0wokRvPFLNOncKdM","40.8535365","-73.8674033","US","NYC","PER","POS","2100 White Plains Rd FRNT 3, Bronx, NY 10462, USA","us_nyc-p_pos_a_5","90","us_nyc-p_pos_a_5_90"
"trial","survey","36","507160","0.0-2.0-34.0","59f77d39b47dfc0001b660ea","626166b218b78fee4e9d8d4c","62617f49eddd18074f96a23c","13","9554","","{""P0_Q0"":null,""ambiguous"":2,""objects"":1,""invisible"":1,""chaos"":2}","","","","","","","","","","","","","","","","","[]","Nearby location of Hikoneatohoteru (jp_hik_htl_a_low1)","ChIJc83wWVfUA2ARvLpBq3jM4k4","35.2381105","136.2567336","JP","HIK","HIK","HTL","Green Hill Takamiya Park, 1780 Takamiyachō, Hikone, Shiga 522-0201, Japan","jp_hik_htl_b_low1","0","jp_hik_htl_b_low1_0"
"half-way","html-button-response","37","522913","0.0-2.0-35.0","59f77d39b47dfc0001b660ea","626166b218b78fee4e9d8d4c","62617f49eddd18074f96a23c","13","null","
            <h3>You are now half way through the study.</h3>
            <p>Please take a quick, 15-second break before you continue.</p>
            <img src='assets/img/countdown-15.gif'>
            <p>The study will automatically advance forward after the countdown is complete. However, you may click ""Next"" to advance forward now if you wish.</p>
        ","null","","","","","","","","","","","","","","","","","","","","","","","","","","","","",""
"attention-check","survey","38","529262","0.0-2.0-36.0","59f77d39b47dfc0001b660ea","626166b218b78fee4e9d8d4c","62617f49eddd18074f96a23c","13","6342","","{""P0_Q0"":null,""ambiguous"":null,""objects"":null,""invisible"":null,""chaos"":null}","","","","","","","","","","","","","","","","","[]","","","","","","","","","","","",""
"trial","survey","39","537381","0.0-2.0-37.0","59f77d39b47dfc0001b660ea","626166b218b78fee4e9d8d4c","62617f49eddd18074f96a23c","13","8112","","{""P0_Q0"":null,""ambiguous"":1,""objects"":1,""invisible"":1,""chaos"":1}","","","","","","","","","","","","","","","","","[]","Nearby location of United States Postal Service (us_arb_pos_a_1)","ChIJyxaGSDe7PIgRdsmUdk5LYuo","42.1703237","-83.7718728","US","ARB","ARB","POS","450 E Michigan Ave, Saline, MI 48176, USA","us_arb_pos_b_1","180","us_arb_pos_b_1_180"
"trial","survey","40","552437","0.0-2.0-38.0","59f77d39b47dfc0001b660ea","626166b218b78fee4e9d8d4c","62617f49eddd18074f96a23c","13","15050","","{""P0_Q0"":null,""ambiguous"":2,""objects"":4,""invisible"":1,""chaos"":5}","","","","","","","","","","","","","","","","","[]","Nearby location of Courtyard by Marriott New York Manhattan Fifth Avenue (us_nyc-c_htl_a_mid2)","ChIJ5Yg_sQBZwokRHhiGwRT771k","40.750592","-73.982198","US","NYC","CTR","HTL","6 E 38th St, New York, NY 10016, USA","us_nyc-c_htl_b_mid2","90","us_nyc-c_htl_b_mid2_90"
"trial","survey","41","562010","0.0-2.0-39.0","59f77d39b47dfc0001b660ea","626166b218b78fee4e9d8d4c","62617f49eddd18074f96a23c","13","9566","","{""P0_Q0"":null,""ambiguous"":2,""objects"":4,""invisible"":1,""chaos"":3}","","","","","","","","","","","","","","","","","[]","United States Postal Service","ChIJ7bddbC9ZwokRPh32cXCjIis","40.7414054","-74.0067214","US","NYC","CTR","POS","426A W 14th St, New York, NY 10014, USA","us_nyc-c_pos_a_8","90","us_nyc-c_pos_a_8_90"
"trial","survey","42","569908","0.0-2.0-40.0","59f77d39b47dfc0001b660ea","626166b218b78fee4e9d8d4c","62617f49eddd18074f96a23c","13","7890","","{""P0_Q0"":null,""ambiguous"":1,""objects"":2,""invisible"":1,""chaos"":2}","","","","","","","","","","","","","","","","","[]","United States Postal Service","ChIJ2S39Rs6xPIgRFumqYMpJrTE","42.2709374","-83.7748696","US","ARB","ARB","POS","2075 W Stadium Blvd, Ann Arbor, MI 48103, USA","us_arb_pos_a_2","90","us_arb_pos_a_2_90"
"trial","survey","43","580765","0.0-2.0-41.0","59f77d39b47dfc0001b660ea","626166b218b78fee4e9d8d4c","62617f49eddd18074f96a23c","13","10850","","{""P0_Q0"":null,""ambiguous"":3,""objects"":2,""invisible"":1,""chaos"":3}","","","","","","","","","","","","","","","","","[]","Nearby location of United States Postal Service (us_nyc-p_pos_a_3)","ChIJe2q9KVpDwokRU6MLLhMmHvo","40.6168044","-73.9301797","US","NYC","PER","POS","Parking lot, 2187 Flatbush Ave, Brooklyn, NY 11234, USA","us_nyc-p_pos_b_3","0","us_nyc-p_pos_b_3_0"
"trial","survey","44","591876","0.0-2.0-42.0","59f77d39b47dfc0001b660ea","626166b218b78fee4e9d8d4c","62617f49eddd18074f96a23c","13","11103","","{""P0_Q0"":null,""ambiguous"":2,""objects"":3,""invisible"":1,""chaos"":3}","","","","","","","","","","","","","","","","","[]","Aijitsu Elementary School","ChIJzR_MUXS7JhURN_tqq9sSdCs","35.699762","139.7340245","JP","TOK","CTR","SCH","26 Kitamachi, Shinjuku City, Tokyo 162-0834, Japan","jp_tok-c_sch_a_5","90","jp_tok-c_sch_a_5_90"
"trial","survey","45","603546","0.0-2.0-43.0","59f77d39b47dfc0001b660ea","626166b218b78fee4e9d8d4c","62617f49eddd18074f96a23c","13","11664","","{""P0_Q0"":null,""ambiguous"":1,""objects"":4,""invisible"":1,""chaos"":5}","","","","","","","","","","","","","","","","","[]","Guidepost Montessori at Museum Mile","ChIJM_EqNF5ZwokRqGSOTYl-ARs","40.7764017","-73.9629479","US","NYC","CTR","SCH","12 E 79th St, New York, NY 10075, USA","us_nyc-c_sch_a_7","90","us_nyc-c_sch_a_7_90"
"trial","survey","46","621623","0.0-2.0-44.0","59f77d39b47dfc0001b660ea","626166b218b78fee4e9d8d4c","62617f49eddd18074f96a23c","13","18069","","{""P0_Q0"":null,""ambiguous"":1,""objects"":1,""invisible"":1,""chaos"":1}","","","","","","","","","","","","","","","","","[]","Nearby location of Hotel Route-Inn Nagahama Inter (us_chl_htl_a_low1)","ChIJ64OtwtAuAmARNDquDmxOjLw","35.3955527","136.2935564","JP","TOR","TOR","HTL","66 Yamashinachō, Nagahama, Shiga 526-0847, Japan","jp_tor_htl_b_low1","0","jp_tor_htl_b_low1_0"
"trial","survey","47","633058","0.0-2.0-45.0","59f77d39b47dfc0001b660ea","626166b218b78fee4e9d8d4c","62617f49eddd18074f96a23c","13","11428","","{""P0_Q0"":null,""ambiguous"":2,""objects"":4,""invisible"":1,""chaos"":3}","","","","","","","","","","","","","","","","","[]","Nearby location of United States Postal Service (us_nyc-p_pos_a_3)","ChIJe2q9KVpDwokRU6MLLhMmHvo","40.6168044","-73.9301797","US","NYC","PER","POS","Parking lot, 2187 Flatbush Ave, Brooklyn, NY 11234, USA","us_nyc-p_pos_b_3","180","us_nyc-p_pos_b_3_180"
"trial","survey","48","641731","0.0-2.0-46.0","59f77d39b47dfc0001b660ea","626166b218b78fee4e9d8d4c","62617f49eddd18074f96a23c","13","8665","","{""P0_Q0"":null,""ambiguous"":2,""objects"":4,""invisible"":1,""chaos"":4}","","","","","","","","","","","","","","","","","[]","THOMPSON CENTRAL PARK - NEW YORK","HYNYCPAH","40.76418","-73.97855","US","NYC","CTR","HTL","119 WEST 56 STREET, NEW YORK, NY 10019","us_nyc-c_htl_a_high2","90","us_nyc-c_htl_a_high2_90"
"trial","survey","49","654158","0.0-2.0-47.0","59f77d39b47dfc0001b660ea","626166b218b78fee4e9d8d4c","62617f49eddd18074f96a23c","13","12419","","{""P0_Q0"":null,""ambiguous"":1,""objects"":1,""invisible"":1,""chaos"":1}","","","","","","","","","","","","","","","","","[]","South Meadows Elementary School","ChIJQaIiMqnOPIgRKzWLjS6IoXg","42.3121005","-84.0238583","US","CHL","CHL","SCH","335 Pierce St, Chelsea, MI 48118, USA","us_chl_sch_a_1","180","us_chl_sch_a_1_180"
"trial","survey","50","661113","0.0-2.0-48.0","59f77d39b47dfc0001b660ea","626166b218b78fee4e9d8d4c","62617f49eddd18074f96a23c","13","6947","","{""P0_Q0"":null,""ambiguous"":1,""objects"":1,""invisible"":1,""chaos"":1}","","","","","","","","","","","","","","","","","[]","Bunkyo Otsuka 3 Post Office","ChIJ2xa06qWNGGARyOBmGzqDPvY","35.7218144","139.7382888","JP","TOK","CTR","POS","3-chōme-39-7 Ōtsuka, Bunkyo City, Tokyo 112-0012, Japan","jp_tok-c_pos_a_7","90","jp_tok-c_pos_a_7_90"
"trial","survey","51","669589","0.0-2.0-49.0","59f77d39b47dfc0001b660ea","626166b218b78fee4e9d8d4c","62617f49eddd18074f96a23c","13","8468","","{""P0_Q0"":null,""ambiguous"":3,""objects"":1,""invisible"":1,""chaos"":2}","","","","","","","","","","","","","","","","","[]","Nearby location of びわ湖畔リゾート 白浜荘 (jp_hik_htl_a_mid2)","ChIJR-fdOL6aAWARRx-bTY1d8b8","35.3062783","136.038326","JP","HIK","HIK","HTL","2315-3 Adogawachō Shimoogawa, Takashima, Shiga 520-1223, Japan","jp_hik_htl_b_mid2","0","jp_hik_htl_b_mid2_0"
"trial","survey","52","678717","0.0-2.0-50.0","59f77d39b47dfc0001b660ea","626166b218b78fee4e9d8d4c","62617f49eddd18074f96a23c","13","9122","","{""P0_Q0"":null,""ambiguous"":1,""objects"":1,""invisible"":1,""chaos"":2}","","","","","","","","","","","","","","","","","[]","Nearby location of Nerima Sakuradai Post Office (jp_tok-p_pos_a_5)","ChIJlUrhPw3tGGARYz3NEa-AcSY","35.7359141","139.6591792","JP","TOK","PER","POS","Japan, 〒176-0012 Tokyo, Nerima City, Toyotamakita, 4-chōme−12−６ 岡野マンション","jp_tok-p_pos_b_5","90","jp_tok-p_pos_b_5_90"
"trial","survey","53","686724","0.0-2.0-51.0","59f77d39b47dfc0001b660ea","626166b218b78fee4e9d8d4c","62617f49eddd18074f96a23c","13","7999","","{""P0_Q0"":null,""ambiguous"":2,""objects"":2,""invisible"":1,""chaos"":2}","","","","","","","","","","","","","","","","","[]","Nearby location of United States Postal Service (us_arb_pos_a_2)","ChIJlwkqdc6xPIgREfyzp428070","42.2697109","-83.7737698","US","ARB","ARB","POS","2019 W Stadium Blvd, Ann Arbor, MI 48103, USA","us_arb_pos_b_2","180","us_arb_pos_b_2_180"
"trial","survey","54","696209","0.0-2.0-52.0","59f77d39b47dfc0001b660ea","626166b218b78fee4e9d8d4c","62617f49eddd18074f96a23c","13","9478","","{""P0_Q0"":null,""ambiguous"":1,""objects"":3,""invisible"":1,""chaos"":2}","","","","","","","","","","","","","","","","","[]","Nearby location of Success Academy Harlem 5 (us_nyc-c_sch_a_2)","ChIJT3PK4nr2wokRoJ2P1lBcwyQ","40.8213713","-73.9455112","US","NYC","CTR","SCH","351 W 141st St, New York, NY 10030, USA","us_nyc-c_sch_b_2","90","us_nyc-c_sch_b_2_90"
"trial","survey","55","708809","0.0-2.0-53.0","59f77d39b47dfc0001b660ea","626166b218b78fee4e9d8d4c","62617f49eddd18074f96a23c","13","12594","","{""P0_Q0"":null,""ambiguous"":1,""objects"":2,""invisible"":1,""chaos"":2}","","","","","","","","","","","","","","","","","[]","Nearby location of Sasazuka Elementary School (jp_tok-c_sch_a_6)","ChIJcyp_VT3zGGARh4qzbdhRhms","35.6750919","139.6707803","JP","TOK","CTR","SCH","Japan, 〒151-0073 Tokyo, Shibuya City, Sasazuka, 1-chōme−52−３ ルアンビル","jp_tok-c_sch_b_6","180","jp_tok-c_sch_b_6_180"
"trial","survey","56","718901","0.0-2.0-54.0","59f77d39b47dfc0001b660ea","626166b218b78fee4e9d8d4c","62617f49eddd18074f96a23c","13","10085","","{""P0_Q0"":null,""ambiguous"":3,""objects"":3,""invisible"":1,""chaos"":2}","","","","","","","","","","","","","","","","","[]","Nearby location of Mandarin Oriental New York (us_nyc-c_htl_a_ultra1)","ChIJDTV9gfVYwokR4yg_rfSKw3M","40.7700712","-73.9843251","US","NYC","CTR","HTL","77 Columbus Ave, New York, NY 10023, USA","us_nyc-c_htl_b_ultra1","270","us_nyc-c_htl_b_ultra1_270"
"trial","survey","57","727495","0.0-2.0-55.0","59f77d39b47dfc0001b660ea","626166b218b78fee4e9d8d4c","62617f49eddd18074f96a23c","13","8588","","{""P0_Q0"":null,""ambiguous"":1,""objects"":4,""invisible"":1,""chaos"":4}","","","","","","","","","","","","","","","","","[]","The Pearl NYC","XTLGATPH","40.76144","-73.98553","US","NYC","CTR","HTL","233 W 49TH ST, NEW YORK, NY 10019","us_nyc-c_htl_a_high1","270","us_nyc-c_htl_a_high1_270"
"trial","survey","58","736763","0.0-2.0-56.0","59f77d39b47dfc0001b660ea","626166b218b78fee4e9d8d4c","62617f49eddd18074f96a23c","13","9261","","{""P0_Q0"":null,""ambiguous"":2,""objects"":2,""invisible"":1,""chaos"":2}","","","","","","","","","","","","","","","","","[]","Nearby location of The Baltic House (us_nyc-p_htl_a_mid1)","ChIJz1earlRawokRerP6Itd2JDg","40.6806771","-73.9836973","US","NYC","PER","HTL","175 3rd Ave, Brooklyn, NY 11217, USA","us_nyc-p_htl_b_mid1","180","us_nyc-p_htl_b_mid1_180"
"trial","survey","59","752182","0.0-2.0-57.0","59f77d39b47dfc0001b660ea","626166b218b78fee4e9d8d4c","62617f49eddd18074f96a23c","13","15412","","{""P0_Q0"":null,""ambiguous"":1,""objects"":2,""invisible"":2,""chaos"":1}","","","","","","","","","","","","","","","","","[]","The Ritz-Carlton Tokyo","RZTYORZZ","35.66622","139.7315","JP","TOK","CTR","HTL","TOKYO MIDTOWN 9-7-1 AKASAKA MI, TOKYO 107-6245","jp_tok-c_htl_a_ultra2","270","jp_tok-c_htl_a_ultra2_270"
"trial","survey","60","764831","0.0-2.0-58.0","59f77d39b47dfc0001b660ea","626166b218b78fee4e9d8d4c","62617f49eddd18074f96a23c","13","12643","","{""P0_Q0"":null,""ambiguous"":3,""objects"":2,""invisible"":1,""chaos"":2}","","","","","","","","","","","","","","","","","[]","Katsushika Higashishinkoiwa Post Office","ChIJRa6FOAeGGGAR0DyxE6La1Zw","35.7226708","139.8606781","JP","TOK","PER","POS","Japan, 〒124-0023 Tokyo, Katsushika City, Higashishinkoiwa, 3-chōme−11−１１−５ 葛飾東新小岩郵便局","jp_tok-p_pos_a_6","180","jp_tok-p_pos_a_6_180"
"trial","survey","61","777125","0.0-2.0-59.0","59f77d39b47dfc0001b660ea","626166b218b78fee4e9d8d4c","62617f49eddd18074f96a23c","13","12287","","{""P0_Q0"":null,""ambiguous"":3,""objects"":4,""invisible"":1,""chaos"":5}","","","","","","","","","","","","","","","","","[]","Nearby location of BASIS Independent Manhattan (us_nyc-c_sch_a_1)","ChIJ5ZYR6Sb2wokRg8Qj29B4aF4","40.7956348","-73.9670782","US","NYC","CTR","SCH","120 W 100th St, New York, NY 10025, USA","us_nyc-c_sch_b_1","90","us_nyc-c_sch_b_1_90"
"trial","survey","62","797925","0.0-2.0-60.0","59f77d39b47dfc0001b660ea","626166b218b78fee4e9d8d4c","62617f49eddd18074f96a23c","13","20792","","{""P0_Q0"":null,""ambiguous"":2,""objects"":3,""invisible"":4,""chaos"":3}","","","","","","","","","","","","","","","","","[]","Nearby location of Best Western Plus Arena Hotel (us_nyc-p_htl_a_low1)","ChIJszayzJpbwokR1Pc20klCR2Y","40.679297","-73.947757","US","NYC","PER","HTL","170 Herkimer St, Brooklyn, NY 11216, USA","us_nyc-p_htl_b_low1","90","us_nyc-p_htl_b_low1_90"
"trial","survey","63","810058","0.0-2.0-61.0","59f77d39b47dfc0001b660ea","626166b218b78fee4e9d8d4c","62617f49eddd18074f96a23c","13","12127","","{""P0_Q0"":null,""ambiguous"":1,""objects"":1,""invisible"":1,""chaos"":2}","","","","","","","","","","","","","","","","","[]","Jittered SV for Aman Tokyo (jp_tok-c_htl_a_ultra1)","ChIJVVWFvviLGGARpWS-yu8uP1k","35.6853286","139.7666855","JP","TOK","CTR","HTL","2-chōme-2-1 Ōtemachi, Chiyoda City, Tokyo 100-0004, Japan","jp_tok-c_htl_a_ultra1","90","jp_tok-c_htl_a_ultra1_90"
"trial","survey","64","818544","0.0-2.0-62.0","59f77d39b47dfc0001b660ea","626166b218b78fee4e9d8d4c","62617f49eddd18074f96a23c","13","8480","","{""P0_Q0"":null,""ambiguous"":1,""objects"":2,""invisible"":1,""chaos"":2}","","","","","","","","","","","","","","","","","[]","Baymont by Wyndham Chelsea","ChIJ3WjGMLjOPIgRTSh5bhMfx-Q","42.2995297","-84.0281015","US","CHL","CHL","HTL","1540 Commerce Park Dr, Chelsea, MI 48118, USA","us_chl_htl_a_mid1","90","us_chl_htl_a_mid1_90"
"trial","survey","65","833061","0.0-2.0-63.0","59f77d39b47dfc0001b660ea","626166b218b78fee4e9d8d4c","62617f49eddd18074f96a23c","13","14511","","{""P0_Q0"":null,""ambiguous"":2,""objects"":1,""invisible"":2,""chaos"":1}","","","","","","","","","","","","","","","","","[]","Toshima Minami-Nagasaki Post Office","ChIJjbRx2KnyGGARYqMHBr_HSX0","35.7264975","139.6842311","JP","TOK","CTR","POS","4-chōme-27-5 Minaminagasaki, Toshima City, Tokyo 171-0052, Japan","jp_tok-c_pos_a_4","180","jp_tok-c_pos_a_4_180"
"trial","survey","66","838496","0.0-2.0-64.0","59f77d39b47dfc0001b660ea","626166b218b78fee4e9d8d4c","62617f49eddd18074f96a23c","13","5427","","{""P0_Q0"":null,""ambiguous"":1,""objects"":1,""invisible"":1,""chaos"":1}","","","","","","","","","","","","","","","","","[]","Nearby location of Comfort Inn (us_chl_htl_a_low1)","ChIJ7WwDQLjOPIgRZf5dwFJ3f34","42.2988455","-84.0286729","US","CHL","CHL","HTL","1600 Commerce Park Dr STE 300, Chelsea, MI 48118, USA","us_chl_htl_b_low1","90","us_chl_htl_b_low1_90"
"trial","survey","67","849242","0.0-2.0-65.0","59f77d39b47dfc0001b660ea","626166b218b78fee4e9d8d4c","62617f49eddd18074f96a23c","13","10739","","{""P0_Q0"":null,""ambiguous"":3,""objects"":2,""invisible"":1,""chaos"":4}","","","","","","","","","","","","","","","","","[]","Nearby location of The Baltic House (us_nyc-p_htl_a_mid1)","ChIJz1earlRawokRerP6Itd2JDg","40.6806771","-73.9836973","US","NYC","PER","HTL","175 3rd Ave, Brooklyn, NY 11217, USA","us_nyc-p_htl_b_mid1","0","us_nyc-p_htl_b_mid1_0"
"trial","survey","68","858485","0.0-2.0-66.0","59f77d39b47dfc0001b660ea","626166b218b78fee4e9d8d4c","62617f49eddd18074f96a23c","13","9237","","{""P0_Q0"":null,""ambiguous"":1,""objects"":3,""invisible"":1,""chaos"":3}","","","","","","","","","","","","","","","","","[]","United States Postal Service","ChIJIRvhvPqJwokRje-X_pYcWug","40.7684345","-73.7370948","US","NYC","PER","POS","25010 Northern Blvd, Queens, NY 11362, USA","us_nyc-p_pos_a_2","0","us_nyc-p_pos_a_2_0"
"trial","survey","69","866485","0.0-2.0-67.0","59f77d39b47dfc0001b660ea","626166b218b78fee4e9d8d4c","62617f49eddd18074f96a23c","13","7995","","{""P0_Q0"":null,""ambiguous"":1,""objects"":2,""invisible"":1,""chaos"":2}","","","","","","","","","","","","","","","","","[]","Nearby location of United States Postal Service (us_chl_pos_a_1)","ChIJt-RJ963OPIgRV95g54XMslo","42.3073218","-84.0212878","US","CHL","CHL","POS","1070 S Main St, Chelsea, MI 48118, USA","us_chl_pos_b_1","90","us_chl_pos_b_1_90"
"demographics","survey-html-form","70","874528","0.0-2.0-68.0","59f77d39b47dfc0001b660ea","626166b218b78fee4e9d8d4c","62617f49eddd18074f96a23c","13","8041","","{""age"":""32"",""gender"":""male"",""gender-self-describe"":"""",""zipcode"":""41168""}","","","","","","","","","","","","","","","","","","","","","","","","","","","","",""
"demographics","survey","71","881268","0.0-2.0-69.0","59f77d39b47dfc0001b660ea","626166b218b78fee4e9d8d4c","62617f49eddd18074f96a23c","13","6728","","{""P0_Q0"":null,""outsideUS"":""No"",""outsideUS_years"":""""}","","","","","","","","","","","","","","","","","[]","","","","","","","","","","","",""
"end-survey","survey-text","72","884264","0.0-2.0-70.0","59f77d39b47dfc0001b660ea","626166b218b78fee4e9d8d4c","62617f49eddd18074f96a23c","13","2990","","{""Q0"":""""}","","","","","","","","","","","","","","","","","","","","","","","","","","","","",""
