"task","trial_type","trial_index","time_elapsed","internal_node_id","subject_id","study_id","session_id","group","rt","stimulus","response","width","height","webaudio","browser","browser_version","mobile","os","fullscreen","vsync_rate","webcam","microphone","success","timeout","failed_images","failed_audio","failed_video","accuracy","name","place_id","lat","lng","culture","loc1","loc2","loct","address","loc_id_prev","angle","loc_id"
"pavlovia-init","pavlovia","0","983","0.0-0.0","60aa6d8db045e2b649a4a08c","626166b218b78fee4e9d8d4c","6261850621a445511213245a","1","","","","","","","","","","","","","","","","","","","","","","","","","","","","","","","",""
"consent","html-button-response","1","4735","0.0-1.0","60aa6d8db045e2b649a4a08c","626166b218b78fee4e9d8d4c","6261850621a445511213245a","1","3750","
        <div style=""font-size: 80%; max-width:700px"">
            <h2>Informed Consent</h2><br>
        
            <div style=""text-align: left"">
            <h3>Streetscape Perceptions</h3>
            <b>HUM00189138</b>
            <br><hr>
        
            <h4>DESCRIPTION</h4>
            <p>
                In this study, you will view Google Street View images. You will then answer questions about your impressions of the streetscapes presented in those images.
            </p><br>
        
            <h4>TIME INVOLVEMENT</h4>
            <p>Your participation will take approximately 30 minutes.</p><br>
        
            <h4>RISKS AND BENEFITS</h4>
            <p>
                The risks associated with this study are minimal. The benefits which may reasonably be expected to result from this study are none.  We cannot and do not guarantee or promise that you will receive any benefits from this study. 
            </p><br>
        
            <h4>PAYMENTS</h4>
            <p>You will be paid <b>$5.00</b> for your participation.</p><br>
        
            <h4>SUBJECT'S RIGHTS</h4>
            <p>
                If you have read this form and have decided to participate in this project, please understand your participation is voluntary and you have the right to withdraw your consent or discontinue participation at any time without penalty or loss of benefits to which you are otherwise entitled.  The alternative is not to participate.  You have the right to refuse to answer particular questions.  
            </p>
        
            <p>
                Your individual privacy will be maintained in all published and written data resulting from the study. Your responses will be kept confidential: you are given a participant code, and no one, not even the research team, can match that code with your identity. Your collected information may also be shared with other researchers as part of our dataset.
            </p><br>
        
            <h4>CONTACT INFORMATION</h4>
            <p>
                Questions: If you have any questions, concerns or complaints about this research, its procedures, risks and benefits, contact the Protocol Director, Nicholas Camp, npcamp@umich.edu, (443) 851-6783.
            </p>
        
            <p>
                If you have questions about your rights as a research participant, or wish to obtain information, ask questions or discuss any concerns about this study with someone other than the researcher(s), please contact the following:
                <br><br>
        
                University of Michigan<br>
                Health Sciences and Behavioral Sciences Institutional Review Board
                (IRB-HSBS)<br>
                2800 Plymouth Road <br>
                Building 520, Room 1169 <br>
                Ann Arbor, MI 48109-2800 <br>
                Telephone: 734-936-0933 or toll free (866) 936-0933 <br>
                Fax: 734-936-1852 <br />
                E-mail: irbhsbs@umich.edu <br>
            </p>
        
            <p>
                You can also contact the University of Michigan Compliance Hotline at 1-866-990-0111. You may also print this consent form to keep.
            </p>
            <br>
        
            <div class=""alert alert-warning""><b>
                Do you consent to participate in this study? If you consent to participate in this study, please click “Accept and continue.”
            </b></div>
            </div>
        </div>
    ","1","","","","","","","","","","","","","","","","","","","","","","","","","","","","",""
"browser-check","browser-check","2","5731","0.0-2.0-0.0","60aa6d8db045e2b649a4a08c","626166b218b78fee4e9d8d4c","6261850621a445511213245a","1","","","","1920","975","true","chrome","100.0.4896","false","Windows 10","true","60.42","true","true","","","","","","","","","","","","","","","","","",""
"","preload","3","6558","0.0-2.0-1.0","60aa6d8db045e2b649a4a08c","626166b218b78fee4e9d8d4c","6261850621a445511213245a","1","","","","","","","","","","","","","","","true","false","[]","[]","[]","","","","","","","","","","","","",""
"instructions","html-button-response","4","255581","0.0-2.0-2.0","60aa6d8db045e2b649a4a08c","626166b218b78fee4e9d8d4c","6261850621a445511213245a","1","249022","
        <div class=""text-container"">
            <h1>Welcome to the study!</h1>
            
            <div class=""text-left"">
                <p>
                    In this study, we are interested in how people think about different Google Street View images. Google Street View takes pictures of streets used for Google Earth and Google Maps. You’ll see Google Street View images of different places and answer some questions about each one.
                </p>
            </div>
            
            <img src='
            https://maps.googleapis.com/maps/api/streetview?size=640x320
            &location=37.783631,-122.432766
            &heading=80
            &pitch=2
            &fov=100
            &radius=150
            &key=AIzaSyC2OxRDg6qlzZDj7j0UAD2XyE0qWokLvvs
            &source=outdoor'>
        
            <br>
        <br>
    ","0","","","","","","","","","","","","","","","","","","","","","","","","","","","","",""
"instructions","html-button-response","5","264001","0.0-2.0-3.0","60aa6d8db045e2b649a4a08c","626166b218b78fee4e9d8d4c","6261850621a445511213245a","1","8105","
        <style>
            img.small {
            max-width: 100px;
            }
            li {
            text-indent: 40px;
            }
        </style>

        <div class=""text-container text-left"">
            <p>For each picture, we’d like your impressions of the scene:</p>
            
            <hr>
                Are there <b>clear, distinct boundaries</b> between objects in the scene, or are the <b>boundaries ambiguous or unclear</b>?
                
                <li>clear, distinct boundaries: <img class=""small"" src=""assets/img/ambiguous-low.png""></li>
                <li>ambiguous or unclear boundaries: <img class=""small"" src=""assets/img/ambiguous-high.png""></li>
            <hr>
            <br>
                Are there <b>only a few different objects</b> in the scene, or is there <b>a large number</b>?
            <br><br>
            <hr>
                Are only <b>a few parts</b> of the scene <b>invisible or obscured</b>, or are <b>many parts invisible or obscured</b>?
                
                <li>a few parts invisible or obscured: <img class=""small"" src=""assets/img/invisible-low.png""></li>
                <li>many parts invisible or obscured: <img class=""small"" src=""assets/img/invisible-high.png""></li>
            <hr>
            <br>
                Does the scene look <b>organized</b> or <b>chaotic</b> to you?
            <br><br>
            <hr>
            
            <p>
                There are no right or wrong answers: we are interested in <b>your</b> impression. Note that some images might have individual buildings or faces blurred for privacy. Please ignore these when making your judgments.
            </p>
        </div>
        <br>
    ","0","","","","","","","","","","","","","","","","","","","","","","","","","","","","",""
"instructions","html-button-response","6","265849","0.0-2.0-4.0","60aa6d8db045e2b649a4a08c","626166b218b78fee4e9d8d4c","6261850621a445511213245a","1","1847","
        <div class=""text-container text-left"">
            <p>Please make sure you are doing this study in an area where you can focus and complete the survey in one sitting.</p>

            <p>Don’t spend too much time on any one picture, and, again go with your gut impression!</p>
            
            <p>The study should take about 30 minutes. We’ll let you know when you’re halfway through.</p>
        </div>
            
        <h3>Ready? Click next to get started!</h3>
        <br>
    ","0","","","","","","","","","","","","","","","","","","","","","","","","","","","","",""
"trial","survey","7","276403","0.0-2.0-5.0","60aa6d8db045e2b649a4a08c","626166b218b78fee4e9d8d4c","6261850621a445511213245a","1","10521","","{""P0_Q0"":null,""ambiguous"":4,""objects"":5,""invisible"":3,""chaos"":4}","","","","","","","","","","","","","","","","","[]","Chelsea House Victorian Inn","ChIJ1ap5tQHMPIgRXxz9M_-mKZc","42.3181667","-84.0196694","US","CHL","CHL","HTL","118 E Middle St, Chelsea, MI 48118, USA","us_chl_htl_a_high1","270","us_chl_htl_a_high1_270"
"trial","survey","8","282596","0.0-2.0-6.0","60aa6d8db045e2b649a4a08c","626166b218b78fee4e9d8d4c","6261850621a445511213245a","1","6184","","{""P0_Q0"":null,""ambiguous"":4,""objects"":5,""invisible"":4,""chaos"":5}","","","","","","","","","","","","","","","","","[]","Nearby location of Math, Language and Art Elementary Math Algebra I & II Geometry PreCalculus Calculus College Math Data Analysis (us_nyc-p_sch_a_2)","ChIJrTWRtBpgwokRN4EStLSswiQ","40.7637342","-73.8299598","US","NYC","PER","SCH","137-35 Northern Blvd, Queens, NY 11354, USA","us_nyc-p_sch_b_2","90","us_nyc-p_sch_b_2_90"
"trial","survey","9","356590","0.0-2.0-7.0","60aa6d8db045e2b649a4a08c","626166b218b78fee4e9d8d4c","6261850621a445511213245a","1","73987","","{""P0_Q0"":null,""ambiguous"":1,""objects"":1,""invisible"":3,""chaos"":2}","","","","","","","","","","","","","","","","","[]","Nearby location of レジーナリゾートびわ湖長浜 (jp_hik_htl_a_high2)","ChIJJclVFRspAmARIuM3ZJ4DJj4","35.3795647","136.2582185","JP","HIK","HIK","HTL","1-6-2 Kanebōchō, Nagahama, Shiga 526-0068, Japan","jp_hik_htl_b_high2","180","jp_hik_htl_b_high2_180"
"trial","survey","10","361752","0.0-2.0-8.0","60aa6d8db045e2b649a4a08c","626166b218b78fee4e9d8d4c","6261850621a445511213245a","1","5154","","{""P0_Q0"":null,""ambiguous"":4,""objects"":4,""invisible"":3,""chaos"":3}","","","","","","","","","","","","","","","","","[]","Nearby location of Chelsea House Victorian Inn (us_chl_htl_a_high1)","ChIJrSMrxwHMPIgRw8h_aIwPHas","42.3194142","-84.0203567","US","CHL","CHL","HTL","310 N Main St Suite 202A, Chelsea, MI 48118, USA","us_chl_htl_b_high1","180","us_chl_htl_b_high1_180"
"trial","survey","11","398854","0.0-2.0-9.0","60aa6d8db045e2b649a4a08c","626166b218b78fee4e9d8d4c","6261850621a445511213245a","1","37096","","{""P0_Q0"":null,""ambiguous"":4,""objects"":4,""invisible"":4,""chaos"":4}","","","","","","","","","","","","","","","","","[]","Nearby location of PS 146 Anna M. Short School (us_nyc-c_sch_a_5)","ChIJ2YTRCqpYwokRoILxg84fVx0","40.788425","-73.9404164","US","NYC","CTR","SCH","416 E 105th St, New York, NY 10029, USA","us_nyc-c_sch_b_5","0","us_nyc-c_sch_b_5_0"
"trial","survey","12","409885","0.0-2.0-10.0","60aa6d8db045e2b649a4a08c","626166b218b78fee4e9d8d4c","6261850621a445511213245a","1","11026","","{""P0_Q0"":null,""ambiguous"":2,""objects"":1,""invisible"":3,""chaos"":2}","","","","","","","","","","","","","","","","","[]","The Ritz-Carlton Tokyo","RZTYORZZ","35.66622","139.7315","JP","TOK","CTR","HTL","TOKYO MIDTOWN 9-7-1 AKASAKA MI, TOKYO 107-6245","jp_tok-c_htl_a_ultra2","180","jp_tok-c_htl_a_ultra2_180"
"trial","survey","13","444157","0.0-2.0-11.0","60aa6d8db045e2b649a4a08c","626166b218b78fee4e9d8d4c","6261850621a445511213245a","1","34265","","{""P0_Q0"":null,""ambiguous"":3,""objects"":3,""invisible"":3,""chaos"":2}","","","","","","","","","","","","","","","","","[]","Graduate Ann Arbor","GPARB348","42.28143","-83.74164","US","ARB","ARB","HTL","615 E HURON ST , ANN ARBOR, MI 48104","us_arb_htl_a_high1","90","us_arb_htl_a_high1_90"
"trial","survey","14","452719","0.0-2.0-12.0","60aa6d8db045e2b649a4a08c","626166b218b78fee4e9d8d4c","6261850621a445511213245a","1","8555","","{""P0_Q0"":null,""ambiguous"":1,""objects"":1,""invisible"":5,""chaos"":2}","","","","","","","","","","","","","","","","","[]","レジーナリゾートびわ湖長浜","ChIJJ5e4VxopAmAR65mu8Uxdxg0","35.3785745","136.2594856","JP","HIK","HIK","HTL","4-22 Kōenchō, Nagahama, Shiga 526-0065, Japan","jp_hik_htl_a_high2","270","jp_hik_htl_a_high2_270"
"trial","survey","15","459389","0.0-2.0-13.0","60aa6d8db045e2b649a4a08c","626166b218b78fee4e9d8d4c","6261850621a445511213245a","1","6663","","{""P0_Q0"":null,""ambiguous"":1,""objects"":1,""invisible"":1,""chaos"":1}","","","","","","","","","","","","","","","","","[]","Nearby location of Nagahama Shiritsu Torahime Elementary School (jp_tor_sch_a_1)","ChIJfT7yNZ8oAmAROTHUpaMv9Ak","35.419735","136.265362","JP","TOR","TOR","SCH","2410 Miyabechō, Nagahama, Shiga 529-0112, Japan","jp_tor_sch_b_1","180","jp_tor_sch_b_1_180"
"trial","survey","16","468023","0.0-2.0-14.0","60aa6d8db045e2b649a4a08c","626166b218b78fee4e9d8d4c","6261850621a445511213245a","1","8627","","{""P0_Q0"":null,""ambiguous"":2,""objects"":2,""invisible"":2,""chaos"":1}","","","","","","","","","","","","","","","","","[]","Nearby location of Hotel Route-Inn Nagahama Inter (us_chl_htl_a_low1)","ChIJ64OtwtAuAmARNDquDmxOjLw","35.3955527","136.2935564","JP","TOR","TOR","HTL","66 Yamashinachō, Nagahama, Shiga 526-0847, Japan","jp_tor_htl_b_low1","180","jp_tor_htl_b_low1_180"
"trial","survey","17","555269","0.0-2.0-15.0","60aa6d8db045e2b649a4a08c","626166b218b78fee4e9d8d4c","6261850621a445511213245a","1","87240","","{""P0_Q0"":null,""ambiguous"":2,""objects"":3,""invisible"":1,""chaos"":1}","","","","","","","","","","","","","","","","","[]","Waseda Daigaku-mae Post Office","ChIJT2M2MgONGGARQWhBX_HTPFY","35.7080144","139.7220286","JP","HIK","HIK","POS","Japan, 〒162-0041 東京都新宿区早稲田鶴巻町５３３","jp_hik_pos_a_4","0","jp_hik_pos_a_4_0"
"trial","survey","18","561238","0.0-2.0-16.0","60aa6d8db045e2b649a4a08c","626166b218b78fee4e9d8d4c","6261850621a445511213245a","1","5963","","{""P0_Q0"":null,""ambiguous"":2,""objects"":2,""invisible"":3,""chaos"":2}","","","","","","","","","","","","","","","","","[]","Nearby location of Best Western Plus Arena Hotel (us_nyc-p_htl_a_low1)","ChIJszayzJpbwokR1Pc20klCR2Y","40.679297","-73.947757","US","NYC","PER","HTL","170 Herkimer St, Brooklyn, NY 11216, USA","us_nyc-p_htl_b_low1","0","us_nyc-p_htl_b_low1_0"
"trial","survey","19","701371","0.0-2.0-17.0","60aa6d8db045e2b649a4a08c","626166b218b78fee4e9d8d4c","6261850621a445511213245a","1","140128","","{""P0_Q0"":null,""ambiguous"":2,""objects"":2,""invisible"":2,""chaos"":2}","","","","","","","","","","","","","","","","","[]","長浜BGホテル","ChIJybhHhispAmARj0lscxsbskI","35.391991","136.282838","JP","TOR","TOR","HTL","300 Kawasakichō, Nagahama, Shiga 526-0846, Japan","jp_tor_htl_a_mid1","270","jp_tor_htl_a_mid1_270"
"trial","survey","20","783164","0.0-2.0-18.0","60aa6d8db045e2b649a4a08c","626166b218b78fee4e9d8d4c","6261850621a445511213245a","1","81787","","{""P0_Q0"":null,""ambiguous"":2,""objects"":2,""invisible"":2,""chaos"":2}","","","","","","","","","","","","","","","","","[]","Nearby location of Mukaihara Elementary School (jp_tok-p_sch_a_4)","ChIJVRTxz0jtGGAR3d5pAzj-FQQ","35.7402285","139.6828032","JP","TOK","PER","SCH","2-chōme-7-6 Mukaihara, Itabashi City, Tokyo 173-0036, Japan","jp_tok-p_sch_b_4","180","jp_tok-p_sch_b_4_180"
"trial","survey","21","812546","0.0-2.0-19.0","60aa6d8db045e2b649a4a08c","626166b218b78fee4e9d8d4c","6261850621a445511213245a","1","29377","","{""P0_Q0"":null,""ambiguous"":2,""objects"":2,""invisible"":2,""chaos"":2}","","","","","","","","","","","","","","","","","[]","Kirihara Higashi Elementary School","ChIJpavbTi56AWARRkSsYgXqutM","35.122484","136.087719","JP","HIK","HIK","SCH","175 Tsuchidachō, Omihachiman, Shiga 523-0082, Japan","jp_hik_sch_a_2","0","jp_hik_sch_a_2_0"
"trial","survey","22","819829","0.0-2.0-20.0","60aa6d8db045e2b649a4a08c","626166b218b78fee4e9d8d4c","6261850621a445511213245a","1","7276","","{""P0_Q0"":null,""ambiguous"":1,""objects"":1,""invisible"":5,""chaos"":3}","","","","","","","","","","","","","","","","","[]","Nakano Shirasagi Post Office","ChIJxY70cpHtGGARm_OCTi5pxck","35.719125","139.6361439","JP","TOK","PER","POS","2-chōme-35-12 Shirasagi, Nakano City, Tokyo 165-0035, Japan","jp_tok-p_pos_a_3","270","jp_tok-p_pos_a_3_270"
"trial","survey","23","945234","0.0-2.0-21.0","60aa6d8db045e2b649a4a08c","626166b218b78fee4e9d8d4c","6261850621a445511213245a","1","125400","","{""P0_Q0"":null,""ambiguous"":1,""objects"":1,""invisible"":2,""chaos"":2}","","","","","","","","","","","","","","","","","[]","Nagahama Shiritsu Torahime Elementary School","ChIJWVB8Ap8oAmARFLmHXCq8zOo","35.4207316","136.2639813","JP","TOR","TOR","SCH","88 Gomura, Nagahama, Shiga 529-0141, Japan","jp_tor_sch_a_1","90","jp_tor_sch_a_1_90"
"trial","survey","24","951802","0.0-2.0-22.0","60aa6d8db045e2b649a4a08c","626166b218b78fee4e9d8d4c","6261850621a445511213245a","1","6561","","{""P0_Q0"":null,""ambiguous"":2,""objects"":2,""invisible"":4,""chaos"":3}","","","","","","","","","","","","","","","","","[]","Nearby location of Tyler school (us_nyc-p_sch_a_3)","ChIJ_YUu76b0wokR2szNWwZJrq8","40.85244","-73.8576424","US","NYC","PER","SCH","1038 Neill Ave, Bronx, NY 10461, USA","us_nyc-p_sch_b_3","90","us_nyc-p_sch_b_3_90"
"trial","survey","25","1000290","0.0-2.0-23.0","60aa6d8db045e2b649a4a08c","626166b218b78fee4e9d8d4c","6261850621a445511213245a","1","48482","","{""P0_Q0"":null,""ambiguous"":3,""objects"":3,""invisible"":1,""chaos"":4}","","","","","","","","","","","","","","","","","[]","United States Postal Service","ChIJ00vgwVlDwokRCNivb7JW25o","40.6153779","-73.9292541","US","NYC","PER","POS","2222 Flatbush Ave, Brooklyn, NY 11234, USA","us_nyc-p_pos_a_3","90","us_nyc-p_pos_a_3_90"
"trial","survey","26","1006825","0.0-2.0-24.0","60aa6d8db045e2b649a4a08c","626166b218b78fee4e9d8d4c","6261850621a445511213245a","1","6530","","{""P0_Q0"":null,""ambiguous"":1,""objects"":1,""invisible"":1,""chaos"":1}","","","","","","","","","","","","","","","","","[]","Wave Preparatory Elementary School","ChIJRdKuS69owokRVVzQsuzg6go","40.5995661","-73.7582473","US","NYC","PER","SCH","535 Briar Pl, Queens, NY 11691, USA","us_nyc-p_sch_a_4","0","us_nyc-p_sch_a_4_0"
"trial","survey","27","1087641","0.0-2.0-25.0","60aa6d8db045e2b649a4a08c","626166b218b78fee4e9d8d4c","6261850621a445511213245a","1","80810","","{""P0_Q0"":null,""ambiguous"":1,""objects"":2,""invisible"":3,""chaos"":2}","","","","","","","","","","","","","","","","","[]","Nearby location of Rakuten STAY HOUSE×WILLSTYLE 八幡堀 (jp_hik_htl_a_high1)","ChIJ-fEvCXl5AWAR8xruOW8CYd0","35.1408592","136.0976484","JP","HIK","HIK","HTL","485-9 Tagachō, Omihachiman, Shiga 523-0821, Japan","jp_hik_htl_b_high1","180","jp_hik_htl_b_high1_180"
"trial","survey","28","1110665","0.0-2.0-26.0","60aa6d8db045e2b649a4a08c","626166b218b78fee4e9d8d4c","6261850621a445511213245a","1","23018","","{""P0_Q0"":null,""ambiguous"":5,""objects"":5,""invisible"":4,""chaos"":5}","","","","","","","","","","","","","","","","","[]","William O'Shea Campus","ChIJ2WLCL4lYwokRRLWnWyx-j_M","40.7810152","-73.9779047","US","NYC","CTR","SCH","100 W 77th St, New York, NY 10024, USA","us_nyc-c_sch_a_6","90","us_nyc-c_sch_a_6_90"
"trial","survey","29","1114809","0.0-2.0-27.0","60aa6d8db045e2b649a4a08c","626166b218b78fee4e9d8d4c","6261850621a445511213245a","1","4138","","{""P0_Q0"":null,""ambiguous"":3,""objects"":3,""invisible"":3,""chaos"":4}","","","","","","","","","","","","","","","","","[]","Nearby location of United States Postal Service (us_nyc-p_pos_a_3)","ChIJe2q9KVpDwokRU6MLLhMmHvo","40.6168044","-73.9301797","US","NYC","PER","POS","Parking lot, 2187 Flatbush Ave, Brooklyn, NY 11234, USA","us_nyc-p_pos_b_3","270","us_nyc-p_pos_b_3_270"
"trial","survey","30","1120755","0.0-2.0-28.0","60aa6d8db045e2b649a4a08c","626166b218b78fee4e9d8d4c","6261850621a445511213245a","1","5940","","{""P0_Q0"":null,""ambiguous"":2,""objects"":2,""invisible"":3,""chaos"":1}","","","","","","","","","","","","","","","","","[]","Nearby location of Setagaya Okamoto Post Office (jp_tok-p_pos_a_1)","ChIJAVgBafjzGGAR0HytC8xomug","35.6274419","139.618016","JP","TOK","PER","POS","1-chōme-37-3 Okamoto, Setagaya City, Tokyo 157-0076, Japan","jp_tok-p_pos_b_1","270","jp_tok-p_pos_b_1_270"
"trial","survey","31","1143056","0.0-2.0-29.0","60aa6d8db045e2b649a4a08c","626166b218b78fee4e9d8d4c","6261850621a445511213245a","1","22296","","{""P0_Q0"":null,""ambiguous"":1,""objects"":1,""invisible"":5,""chaos"":2}","","","","","","","","","","","","","","","","","[]","Toshima Minami-Nagasaki Post Office","ChIJjbRx2KnyGGARYqMHBr_HSX0","35.7264975","139.6842311","JP","TOK","CTR","POS","4-chōme-27-5 Minaminagasaki, Toshima City, Tokyo 171-0052, Japan","jp_tok-c_pos_a_4","270","jp_tok-c_pos_a_4_270"
"trial","survey","32","1147394","0.0-2.0-30.0","60aa6d8db045e2b649a4a08c","626166b218b78fee4e9d8d4c","6261850621a445511213245a","1","4332","","{""P0_Q0"":null,""ambiguous"":2,""objects"":2,""invisible"":2,""chaos"":2}","","","","","","","","","","","","","","","","","[]","ORCHARD STREET HOTEL","PWNYC109","40.72117","-73.98894","US","NYC","CTR","HTL","163 ORCHARD STREET, NEW YORK, NY 10002","us_nyc-c_htl_a_low1","0","us_nyc-c_htl_a_low1_0"
"trial","survey","33","1151104","0.0-2.0-31.0","60aa6d8db045e2b649a4a08c","626166b218b78fee4e9d8d4c","6261850621a445511213245a","1","3704","","{""P0_Q0"":null,""ambiguous"":1,""objects"":1,""invisible"":1,""chaos"":1}","","","","","","","","","","","","","","","","","[]","Nearby location of TownePlace Suites by Marriott Ann Arbor (us_arb_htl_a_mid1)","ChIJ71gCcu-vPIgRi_B5Ob5B76o","42.2367203","-83.7509139","US","ARB","ARB","HTL","1126 Lariat Loop, Ann Arbor, MI 48108, USA","us_arb_htl_b_mid1","180","us_arb_htl_b_mid1_180"
"trial","survey","34","1157377","0.0-2.0-32.0","60aa6d8db045e2b649a4a08c","626166b218b78fee4e9d8d4c","6261850621a445511213245a","1","6266","","{""P0_Q0"":null,""ambiguous"":3,""objects"":3,""invisible"":2,""chaos"":2}","","","","","","","","","","","","","","","","","[]","Wave Preparatory Elementary School","ChIJRdKuS69owokRVVzQsuzg6go","40.5995661","-73.7582473","US","NYC","PER","SCH","535 Briar Pl, Queens, NY 11691, USA","us_nyc-p_sch_a_4","180","us_nyc-p_sch_a_4_180"
"trial","survey","35","1164625","0.0-2.0-33.0","60aa6d8db045e2b649a4a08c","626166b218b78fee4e9d8d4c","6261850621a445511213245a","1","7243","","{""P0_Q0"":null,""ambiguous"":1,""objects"":1,""invisible"":1,""chaos"":2}","","","","","","","","","","","","","","","","","[]","Nearby location of Ōmori Bellport Post Office (jp_hik_pos_a_2)","ChIJ7Ywa2cxhGGARziYl93kj-_E","35.5874802","139.7328359","JP","HIK","HIK","POS","3-chōme-35-8 Minamiōi, Shinagawa City, Tokyo 140-0013, Japan","jp_hik_pos_b_2","90","jp_hik_pos_b_2_90"
"trial","survey","36","1216145","0.0-2.0-34.0","60aa6d8db045e2b649a4a08c","626166b218b78fee4e9d8d4c","6261850621a445511213245a","1","51513","","{""P0_Q0"":null,""ambiguous"":2,""objects"":2,""invisible"":4,""chaos"":2}","","","","","","","","","","","","","","","","","[]","Léman Manhattan Preparatory School","ChIJ1R3juBZawokRy34rGleDCJs","40.7060686","-74.0140159","US","NYC","CTR","SCH","1 Morris St, New York, NY 10004, USA","us_nyc-c_sch_a_8","90","us_nyc-c_sch_a_8_90"
"half-way","html-button-response","37","1219692","0.0-2.0-35.0","60aa6d8db045e2b649a4a08c","626166b218b78fee4e9d8d4c","6261850621a445511213245a","1","3546","
            <h3>You are now half way through the study.</h3>
            <p>Please take a quick, 15-second break before you continue.</p>
            <img src='assets/img/countdown-15.gif'>
            <p>The study will automatically advance forward after the countdown is complete. However, you may click ""Next"" to advance forward now if you wish.</p>
        ","0","","","","","","","","","","","","","","","","","","","","","","","","","","","","",""
"attention-check","survey","38","1222642","0.0-2.0-36.0","60aa6d8db045e2b649a4a08c","626166b218b78fee4e9d8d4c","6261850621a445511213245a","1","2944","","{""P0_Q0"":null,""ambiguous"":null,""objects"":null,""invisible"":null,""chaos"":null}","","","","","","","","","","","","","","","","","[]","","","","","","","","","","","",""
"trial","survey","39","1261857","0.0-2.0-37.0","60aa6d8db045e2b649a4a08c","626166b218b78fee4e9d8d4c","6261850621a445511213245a","1","39208","","{""P0_Q0"":null,""ambiguous"":1,""objects"":1,""invisible"":1,""chaos"":1}","","","","","","","","","","","","","","","","","[]","Nearby location of Guidepost Montessori at Museum Mile (us_nyc-c_sch_a_7)","ChIJMU401IBZwokRBiUiZCbwkh0","40.7774782","-73.9615352","US","NYC","CTR","SCH","1070 Madison Ave, New York, NY 10028, USA","us_nyc-c_sch_b_7","90","us_nyc-c_sch_b_7_90"
"trial","survey","40","1267361","0.0-2.0-38.0","60aa6d8db045e2b649a4a08c","626166b218b78fee4e9d8d4c","6261850621a445511213245a","1","5498","","{""P0_Q0"":null,""ambiguous"":4,""objects"":2,""invisible"":2,""chaos"":4}","","","","","","","","","","","","","","","","","[]","Manually Updated Jittered SV for Nearby location of Marunouchi Center Bldg. Post Office (jp_tok-c_pos_a_8) (jp_tok-c_pos_b_8)","ChIJnUcMGviLGGAROCgXeJNX4xg","35.685418","139.762932","JP","TOK","CTR","POS","1-chōme-1 Ōtemachi, Chiyoda City, Tokyo 100-0004, Japan","jp_tok-c_pos_b_8","90","jp_tok-c_pos_b_8_90"
"trial","survey","41","1307824","0.0-2.0-39.0","60aa6d8db045e2b649a4a08c","626166b218b78fee4e9d8d4c","6261850621a445511213245a","1","40459","","{""P0_Q0"":null,""ambiguous"":1,""objects"":1,""invisible"":1,""chaos"":1}","","","","","","","","","","","","","","","","","[]","Jonan Daini Elementary School","ChIJOzDZZm6KGGARfmI0vkKc_Kw","35.6154264","139.7461583","JP","TOK","PER","SCH","3-chōme-4-5 Higashishinagawa, Shinagawa City, Tokyo 140-0002, Japan","jp_tok-p_sch_a_5","270","jp_tok-p_sch_a_5_270"
"trial","survey","42","1313255","0.0-2.0-40.0","60aa6d8db045e2b649a4a08c","626166b218b78fee4e9d8d4c","6261850621a445511213245a","1","5426","","{""P0_Q0"":null,""ambiguous"":1,""objects"":1,""invisible"":1,""chaos"":1}","","","","","","","","","","","","","","","","","[]","Marunouchi Center Bldg. Post Office","ChIJEXvU5PiLGGARr5EAERW7XhI","35.6836406","139.7655925","JP","TOK","CTR","POS","1-chōme-6-1 Marunouchi, Chiyoda City, Tokyo 100-0005, Japan","jp_tok-c_pos_a_8","180","jp_tok-c_pos_a_8_180"
"trial","survey","43","1322457","0.0-2.0-41.0","60aa6d8db045e2b649a4a08c","626166b218b78fee4e9d8d4c","6261850621a445511213245a","1","9196","","{""P0_Q0"":null,""ambiguous"":4,""objects"":3,""invisible"":1,""chaos"":3}","","","","","","","","","","","","","","","","","[]","台東小学校跡","ChIJPzL6D6mPGGAROc_ZDczQMBw","35.7231123","139.7860147","JP","TOK","CTR","SCH","3-chōme-1-30 Shitaya, Taito City, Tokyo 110-0004, Japan","jp_tok-c_sch_a_1","0","jp_tok-c_sch_a_1_0"
"trial","survey","44","1363832","0.0-2.0-42.0","60aa6d8db045e2b649a4a08c","626166b218b78fee4e9d8d4c","6261850621a445511213245a","1","41369","","{""P0_Q0"":null,""ambiguous"":4,""objects"":2,""invisible"":3,""chaos"":3}","","","","","","","","","","","","","","","","","[]","Nearby location of Nakano Sun Cuore Post Office (jp_tok-p_pos_a_2)","ChIJ_6f_XpryGGARylU0pXEPcbM","35.7102066","139.6632353","JP","TOK","PER","POS","2-chōme-30-7 Arai, Nakano City, Tokyo 165-0026, Japan","jp_tok-p_pos_b_2","180","jp_tok-p_pos_b_2_180"
"trial","survey","45","1367642","0.0-2.0-43.0","60aa6d8db045e2b649a4a08c","626166b218b78fee4e9d8d4c","6261850621a445511213245a","1","3805","","{""P0_Q0"":null,""ambiguous"":1,""objects"":1,""invisible"":1,""chaos"":1}","","","","","","","","","","","","","","","","","[]","Nearby location of United States Postal Service (us_nyc-c_pos_a_2)","ChIJtTVWPTz2wokR67Bcx4reZLs","40.8061808","-73.963843","US","NYC","CTR","POS","540 W 114th St, New York, NY 10025, USA","us_nyc-c_pos_b_2","180","us_nyc-c_pos_b_2_180"
"trial","survey","46","1373472","0.0-2.0-44.0","60aa6d8db045e2b649a4a08c","626166b218b78fee4e9d8d4c","6261850621a445511213245a","1","5824","","{""P0_Q0"":null,""ambiguous"":5,""objects"":3,""invisible"":4,""chaos"":4}","","","","","","","","","","","","","","","","","[]","Nearby location of Mandarin Oriental New York (us_nyc-c_htl_a_ultra1)","ChIJDTV9gfVYwokR4yg_rfSKw3M","40.7700712","-73.9843251","US","NYC","CTR","HTL","77 Columbus Ave, New York, NY 10023, USA","us_nyc-c_htl_b_ultra1","90","us_nyc-c_htl_b_ultra1_90"
"trial","survey","47","1381152","0.0-2.0-45.0","60aa6d8db045e2b649a4a08c","626166b218b78fee4e9d8d4c","6261850621a445511213245a","1","7674","","{""P0_Q0"":null,""ambiguous"":1,""objects"":3,""invisible"":1,""chaos"":2}","","","","","","","","","","","","","","","","","[]","TownePlace Suites by Marriott Ann Arbor","TOARBTPT","42.23796","-83.74932","US","ARB","ARB","HTL","1301 BRIARWOOD CIRCLE DR, ANN ARBOR, MI 48108","us_arb_htl_a_mid1","0","us_arb_htl_a_mid1_0"
"trial","survey","48","1423616","0.0-2.0-46.0","60aa6d8db045e2b649a4a08c","626166b218b78fee4e9d8d4c","6261850621a445511213245a","1","42459","","{""P0_Q0"":null,""ambiguous"":1,""objects"":1,""invisible"":1,""chaos"":1}","","","","","","","","","","","","","","","","","[]","United States Postal Service","ChIJbQAKGJ_0wokRvPFLNOncKdM","40.8535365","-73.8674033","US","NYC","PER","POS","2100 White Plains Rd FRNT 3, Bronx, NY 10462, USA","us_nyc-p_pos_a_5","0","us_nyc-p_pos_a_5_0"
"trial","survey","49","1432576","0.0-2.0-47.0","60aa6d8db045e2b649a4a08c","626166b218b78fee4e9d8d4c","6261850621a445511213245a","1","8955","","{""P0_Q0"":null,""ambiguous"":2,""objects"":3,""invisible"":1,""chaos"":1}","","","","","","","","","","","","","","","","","[]","Nearby location of Comfort Inn (us_chl_htl_a_low1)","ChIJ7WwDQLjOPIgRZf5dwFJ3f34","42.2988455","-84.0286729","US","CHL","CHL","HTL","1600 Commerce Park Dr STE 300, Chelsea, MI 48118, USA","us_chl_htl_b_low1","0","us_chl_htl_b_low1_0"
"trial","survey","50","1449695","0.0-2.0-48.0","60aa6d8db045e2b649a4a08c","626166b218b78fee4e9d8d4c","6261850621a445511213245a","1","17113","","{""P0_Q0"":null,""ambiguous"":2,""objects"":2,""invisible"":4,""chaos"":2}","","","","","","","","","","","","","","","","","[]","Nearby location of The Ritz-Carlton Tokyo (jp_tok-c_htl_a_ultra2)","ChIJdZpNkoKLGGARPstgSDOpX5o","35.6651495","139.7330667","JP","TOK","CTR","HTL","4-chōme-3-24 Roppongi, Minato City, Tokyo 106-0032, Japan","jp_tok-c_htl_b_ultra2","90","jp_tok-c_htl_b_ultra2_90"
"trial","survey","51","1455151","0.0-2.0-49.0","60aa6d8db045e2b649a4a08c","626166b218b78fee4e9d8d4c","6261850621a445511213245a","1","5451","","{""P0_Q0"":null,""ambiguous"":1,""objects"":1,""invisible"":3,""chaos"":2}","","","","","","","","","","","","","","","","","[]","Manually Updated Jittered SV for The Tokyo Station Hotel (jp_tok-c_htl_a_high2)","ChIJC3Cf2PuLGGAROO00ukl8JwA","35.681076","139.765519","JP","TOK","CTR","HTL","Tokyo Station, 1-chōme-9 Marunouchi, Chiyoda City, Tokyo 100-0005, Japan","jp_tok-c_htl_a_high2","180","jp_tok-c_htl_a_high2_180"
"trial","survey","52","1459936","0.0-2.0-50.0","60aa6d8db045e2b649a4a08c","626166b218b78fee4e9d8d4c","6261850621a445511213245a","1","4778","","{""P0_Q0"":null,""ambiguous"":2,""objects"":3,""invisible"":3,""chaos"":3}","","","","","","","","","","","","","","","","","[]","Adahi Sano Post Office","ChIJuYxTuuOPGGAREn1yJl24fbw","35.7864794","139.8411136","JP","HIK","HIK","POS","2-chōme-11-12 Sano, Adachi City, Tokyo 121-0053, Japan","jp_hik_pos_a_3","180","jp_hik_pos_a_3_180"
"trial","survey","53","1465064","0.0-2.0-51.0","60aa6d8db045e2b649a4a08c","626166b218b78fee4e9d8d4c","6261850621a445511213245a","1","5122","","{""P0_Q0"":null,""ambiguous"":2,""objects"":4,""invisible"":2,""chaos"":3}","","","","","","","","","","","","","","","","","[]","Nearby location of United States Postal Service (us_nyc-p_pos_a_2)","ChIJLSVr_e-JwokR4naG8qzZU4M","40.769638","-73.735929","US","NYC","PER","POS","252-02 Northern Blvd, Flushing, NY 11362, USA","us_nyc-p_pos_b_2","270","us_nyc-p_pos_b_2_270"
"trial","survey","54","1526223","0.0-2.0-52.0","60aa6d8db045e2b649a4a08c","626166b218b78fee4e9d8d4c","6261850621a445511213245a","1","61154","","{""P0_Q0"":null,""ambiguous"":1,""objects"":1,""invisible"":4,""chaos"":3}","","","","","","","","","","","","","","","","","[]","Kotō 3rd Elementary School","ChIJyWBTvO3XA2ARubFCKa9mR4A","35.130888","136.225113","JP","HIK","HIK","SCH","340 Kotakarichō, Higashiomi, Shiga 527-0125, Japan","jp_hik_sch_a_3","180","jp_hik_sch_a_3_180"
"trial","survey","55","1533599","0.0-2.0-53.0","60aa6d8db045e2b649a4a08c","626166b218b78fee4e9d8d4c","6261850621a445511213245a","1","7371","","{""P0_Q0"":null,""ambiguous"":2,""objects"":1,""invisible"":1,""chaos"":1}","","","","","","","","","","","","","","","","","[]","HOTEL ALLAMANDA AOYAMA","FGTYOHAA","35.67122","139.71765","JP","TOK","CTR","HTL","2-7-13 KITA AOYAMA MINATO-KU, TOKYO 107 0061","jp_tok-c_htl_a_high1","270","jp_tok-c_htl_a_high1_270"
"trial","survey","56","1540247","0.0-2.0-54.0","60aa6d8db045e2b649a4a08c","626166b218b78fee4e9d8d4c","6261850621a445511213245a","1","6642","","{""P0_Q0"":null,""ambiguous"":4,""objects"":4,""invisible"":3,""chaos"":4}","","","","","","","","","","","","","","","","","[]","Nearby location of Waseda Daigaku-mae Post Office (jp_hik_pos_a_4)","ChIJ3fFikwKNGGARdbidMhgiTgs","35.7066137","139.7233789","JP","HIK","HIK","POS","508 Wasedatsurumakichō, Shinjuku City, Tokyo 162-0041, Japan","jp_hik_pos_b_4","270","jp_hik_pos_b_4_270"
"trial","survey","57","1549121","0.0-2.0-55.0","60aa6d8db045e2b649a4a08c","626166b218b78fee4e9d8d4c","6261850621a445511213245a","1","8868","","{""P0_Q0"":null,""ambiguous"":4,""objects"":3,""invisible"":2,""chaos"":3}","","","","","","","","","","","","","","","","","[]","Bronx Charter School for Excellence 3","ChIJg2kj5avzwokRaKO_rPdPfu8","40.8883786","-73.8632703","US","NYC","PER","SCH","3956 Carpenter Ave, Bronx, NY 10466, USA","us_nyc-p_sch_a_6","0","us_nyc-p_sch_a_6_0"
"trial","survey","58","1554639","0.0-2.0-56.0","60aa6d8db045e2b649a4a08c","626166b218b78fee4e9d8d4c","6261850621a445511213245a","1","5513","","{""P0_Q0"":null,""ambiguous"":4,""objects"":5,""invisible"":2,""chaos"":4}","","","","","","","","","","","","","","","","","[]","Best Western Plus Arena Hotel","BWJFK142","40.67815","-73.94879","US","NYC","PER","HTL","1324 ATLANTIC AVENUE, BROOKLYN, NY 11216","us_nyc-p_htl_a_low1","90","us_nyc-p_htl_a_low1_90"
"trial","survey","59","1560359","0.0-2.0-57.0","60aa6d8db045e2b649a4a08c","626166b218b78fee4e9d8d4c","6261850621a445511213245a","1","5714","","{""P0_Q0"":null,""ambiguous"":3,""objects"":4,""invisible"":3,""chaos"":3}","","","","","","","","","","","","","","","","","[]","Nearby location of Mitsui Garden Kyobashi Tokyo (jp_tok-c_htl_a_low2)","ChIJp2pEW_2LGGARnNNe1pDMCrc","35.6801013","139.7722917","JP","TOK","CTR","HTL","3 Chome-7 Nihonbashi, Chuo City, Tokyo 103-0027, Japan","jp_tok-c_htl_b_low2","0","jp_tok-c_htl_b_low2_0"
"trial","survey","60","1566361","0.0-2.0-58.0","60aa6d8db045e2b649a4a08c","626166b218b78fee4e9d8d4c","6261850621a445511213245a","1","5996","","{""P0_Q0"":null,""ambiguous"":3,""objects"":4,""invisible"":2,""chaos"":3}","","","","","","","","","","","","","","","","","[]","豊島区立朝日小学校 ひいらぎ学級","ChIJtauqIoKNGGARrjSxFT4oZHo","35.741097","139.73295","JP","TOK","CTR","SCH","Japan, 〒170-0002 Tokyo, Toshima City, Sugamo, 5-chōme−33−１ 豊島区立朝日小学校","jp_tok-c_sch_a_2","180","jp_tok-c_sch_a_2_180"
"trial","survey","61","1575250","0.0-2.0-59.0","60aa6d8db045e2b649a4a08c","626166b218b78fee4e9d8d4c","6261850621a445511213245a","1","8882","","{""P0_Q0"":null,""ambiguous"":4,""objects"":2,""invisible"":2,""chaos"":3}","","","","","","","","","","","","","","","","","[]","Nearby location of P.S. 153 Adam Clayton Powell (us_nyc-c_sch_a_3)","ChIJ37jL5mL2wokRoeoE0seWQ44","40.8276038","-73.9486798","US","NYC","CTR","SCH","547 W 147th St, New York, NY 10031, USA","us_nyc-c_sch_b_3","0","us_nyc-c_sch_b_3_0"
"trial","survey","62","1605551","0.0-2.0-60.0","60aa6d8db045e2b649a4a08c","626166b218b78fee4e9d8d4c","6261850621a445511213245a","1","30295","","{""P0_Q0"":null,""ambiguous"":1,""objects"":2,""invisible"":1,""chaos"":1}","","","","","","","","","","","","","","","","","[]","Nearby location of United States Postal Service (us_nyc-p_pos_a_6)","ChIJ3R3ukfxEwokRG8NgRpaxZSY","40.6042186","-73.9781935","US","NYC","PER","POS","1776 W 5th St, Brooklyn, NY 11223, USA","us_nyc-p_pos_b_6","90","us_nyc-p_pos_b_6_90"
"trial","survey","63","1610065","0.0-2.0-61.0","60aa6d8db045e2b649a4a08c","626166b218b78fee4e9d8d4c","6261850621a445511213245a","1","4508","","{""P0_Q0"":null,""ambiguous"":2,""objects"":4,""invisible"":3,""chaos"":3}","","","","","","","","","","","","","","","","","[]","The Baltic House","XTNYC653","40.682","-73.985","US","NYC","PER","HTL","489 BALTIC STREET, BROOKLYN, NY 11217","us_nyc-p_htl_a_mid1","90","us_nyc-p_htl_a_mid1_90"
"trial","survey","64","1623183","0.0-2.0-62.0","60aa6d8db045e2b649a4a08c","626166b218b78fee4e9d8d4c","6261850621a445511213245a","1","13111","","{""P0_Q0"":null,""ambiguous"":4,""objects"":4,""invisible"":2,""chaos"":4}","","","","","","","","","","","","","","","","","[]","Nearby location of Hilton Garden Inn New York/Manhattan-Midtown East (us_nyc-c_htl_a_low2)","ChIJp7rOeORYwokR0fuDKJJiHkw","40.7579935","-73.9679168","US","NYC","CTR","HTL","223 E 54th St, New York, NY 10022, USA","us_nyc-c_htl_b_low2","90","us_nyc-c_htl_b_low2_90"
"trial","survey","65","1629799","0.0-2.0-63.0","60aa6d8db045e2b649a4a08c","626166b218b78fee4e9d8d4c","6261850621a445511213245a","1","6610","","{""P0_Q0"":null,""ambiguous"":3,""objects"":1,""invisible"":1,""chaos"":1}","","","","","","","","","","","","","","","","","[]","Nearby location of Horace Mann Barnard Elementary (us_nyc-p_sch_a_1)","ChIJ9ds6urrzwokRAWUJ8d6GdJk","40.8906469","-73.9015387","US","NYC","PER","SCH","Chrysostom Hall, 4513 Manhattan College Pkwy, Bronx, NY 10471, USA","us_nyc-p_sch_b_1","90","us_nyc-p_sch_b_1_90"
"trial","survey","66","1634487","0.0-2.0-64.0","60aa6d8db045e2b649a4a08c","626166b218b78fee4e9d8d4c","6261850621a445511213245a","1","4682","","{""P0_Q0"":null,""ambiguous"":3,""objects"":3,""invisible"":3,""chaos"":3}","","","","","","","","","","","","","","","","","[]","レジーナリゾートびわ湖長浜","ChIJJ5e4VxopAmAR65mu8Uxdxg0","35.3785745","136.2594856","JP","HIK","HIK","HTL","4-22 Kōenchō, Nagahama, Shiga 526-0065, Japan","jp_hik_htl_a_high2","90","jp_hik_htl_a_high2_90"
"trial","survey","67","1639295","0.0-2.0-65.0","60aa6d8db045e2b649a4a08c","626166b218b78fee4e9d8d4c","6261850621a445511213245a","1","4802","","{""P0_Q0"":null,""ambiguous"":2,""objects"":2,""invisible"":2,""chaos"":2}","","","","","","","","","","","","","","","","","[]","Nearby location of Kasai Station Post Office (jp_hik_pos_a_1)","ChIJJ6kVju2HGGAR5jpVAdpfozs","35.6644139","139.8716517","JP","HIK","HIK","POS","3-chōme-33-14 Nakakasai, Edogawa City, Tokyo 134-0083, Japan","jp_hik_pos_b_1","180","jp_hik_pos_b_1_180"
"trial","survey","68","1644535","0.0-2.0-66.0","60aa6d8db045e2b649a4a08c","626166b218b78fee4e9d8d4c","6261850621a445511213245a","1","5234","","{""P0_Q0"":null,""ambiguous"":4,""objects"":4,""invisible"":3,""chaos"":3}","","","","","","","","","","","","","","","","","[]","Tyler school","ChIJt-5KfXv1wokRq4WnokUwQ44","40.8513114","-73.8564072","US","NYC","PER","SCH","1916 Hone Ave, Bronx, NY 10461, USA","us_nyc-p_sch_a_3","0","us_nyc-p_sch_a_3_0"
"trial","survey","69","1649871","0.0-2.0-67.0","60aa6d8db045e2b649a4a08c","626166b218b78fee4e9d8d4c","6261850621a445511213245a","1","5331","","{""P0_Q0"":null,""ambiguous"":4,""objects"":1,""invisible"":3,""chaos"":2}","","","","","","","","","","","","","","","","","[]","Nearby location of Hilton New York JFK Airport, NY (us_nyc-p_htl_a_mid2)","ChIJvcyCtx9nwokREAp7AP5NM9s","40.6672608","-73.7964601","US","NYC","PER","HTL","135-25 142nd St, Queens, NY 11436, USA","us_nyc-p_htl_b_mid2","90","us_nyc-p_htl_b_mid2_90"
"demographics","survey-html-form","70","1657106","0.0-2.0-68.0","60aa6d8db045e2b649a4a08c","626166b218b78fee4e9d8d4c","6261850621a445511213245a","1","7234","","{""age"":""20"",""gender"":""female"",""gender-self-describe"":"""",""zipcode"":""27606""}","","","","","","","","","","","","","","","","","","","","","","","","","","","","",""
"demographics","survey","71","1659876","0.0-2.0-69.0","60aa6d8db045e2b649a4a08c","626166b218b78fee4e9d8d4c","6261850621a445511213245a","1","2759","","{""P0_Q0"":null,""outsideUS"":""No"",""outsideUS_years"":""""}","","","","","","","","","","","","","","","","","[]","","","","","","","","","","","",""
"end-survey","survey-text","72","1661010","0.0-2.0-70.0","60aa6d8db045e2b649a4a08c","626166b218b78fee4e9d8d4c","6261850621a445511213245a","1","1130","","{""Q0"":""""}","","","","","","","","","","","","","","","","","","","","","","","","","","","","",""
