"task","trial_type","trial_index","time_elapsed","internal_node_id","subject_id","study_id","session_id","group","rt","stimulus","response","width","height","webaudio","browser","browser_version","mobile","os","fullscreen","vsync_rate","webcam","microphone","success","timeout","failed_images","failed_audio","failed_video","accuracy","name","place_id","lat","lng","culture","loc1","loc2","loct","address","loc_id_prev","angle","loc_id"
"pavlovia-init","pavlovia","0","2615","0.0-0.0","60fdf439667428ddf589f80f","626166b218b78fee4e9d8d4c","626186cdc24aef662f6dfada","16","","","","","","","","","","","","","","","","","","","","","","","","","","","","","","","",""
"consent","html-button-response","1","12548","0.0-1.0","60fdf439667428ddf589f80f","626166b218b78fee4e9d8d4c","626186cdc24aef662f6dfada","16","9930","
        <div style=""font-size: 80%; max-width:700px"">
            <h2>Informed Consent</h2><br>
        
            <div style=""text-align: left"">
            <h3>Streetscape Perceptions</h3>
            <b>HUM00189138</b>
            <br><hr>
        
            <h4>DESCRIPTION</h4>
            <p>
                In this study, you will view Google Street View images. You will then answer questions about your impressions of the streetscapes presented in those images.
            </p><br>
        
            <h4>TIME INVOLVEMENT</h4>
            <p>Your participation will take approximately 30 minutes.</p><br>
        
            <h4>RISKS AND BENEFITS</h4>
            <p>
                The risks associated with this study are minimal. The benefits which may reasonably be expected to result from this study are none.  We cannot and do not guarantee or promise that you will receive any benefits from this study. 
            </p><br>
        
            <h4>PAYMENTS</h4>
            <p>You will be paid <b>$5.00</b> for your participation.</p><br>
        
            <h4>SUBJECT'S RIGHTS</h4>
            <p>
                If you have read this form and have decided to participate in this project, please understand your participation is voluntary and you have the right to withdraw your consent or discontinue participation at any time without penalty or loss of benefits to which you are otherwise entitled.  The alternative is not to participate.  You have the right to refuse to answer particular questions.  
            </p>
        
            <p>
                Your individual privacy will be maintained in all published and written data resulting from the study. Your responses will be kept confidential: you are given a participant code, and no one, not even the research team, can match that code with your identity. Your collected information may also be shared with other researchers as part of our dataset.
            </p><br>
        
            <h4>CONTACT INFORMATION</h4>
            <p>
                Questions: If you have any questions, concerns or complaints about this research, its procedures, risks and benefits, contact the Protocol Director, Nicholas Camp, npcamp@umich.edu, (443) 851-6783.
            </p>
        
            <p>
                If you have questions about your rights as a research participant, or wish to obtain information, ask questions or discuss any concerns about this study with someone other than the researcher(s), please contact the following:
                <br><br>
        
                University of Michigan<br>
                Health Sciences and Behavioral Sciences Institutional Review Board
                (IRB-HSBS)<br>
                2800 Plymouth Road <br>
                Building 520, Room 1169 <br>
                Ann Arbor, MI 48109-2800 <br>
                Telephone: 734-936-0933 or toll free (866) 936-0933 <br>
                Fax: 734-936-1852 <br />
                E-mail: irbhsbs@umich.edu <br>
            </p>
        
            <p>
                You can also contact the University of Michigan Compliance Hotline at 1-866-990-0111. You may also print this consent form to keep.
            </p>
            <br>
        
            <div class=""alert alert-warning""><b>
                Do you consent to participate in this study? If you consent to participate in this study, please click “Accept and continue.”
            </b></div>
            </div>
        </div>
    ","1","","","","","","","","","","","","","","","","","","","","","","","","","","","","",""
"browser-check","browser-check","2","13531","0.0-2.0-0.0","60fdf439667428ddf589f80f","626166b218b78fee4e9d8d4c","626186cdc24aef662f6dfada","16","","","","1536","722","true","chrome","100.0.4896","false","Windows 10","true","61.33","true","true","","","","","","","","","","","","","","","","","",""
"","preload","3","14302","0.0-2.0-1.0","60fdf439667428ddf589f80f","626166b218b78fee4e9d8d4c","626186cdc24aef662f6dfada","16","","","","","","","","","","","","","","","true","false","[]","[]","[]","","","","","","","","","","","","",""
"instructions","html-button-response","4","16179","0.0-2.0-2.0","60fdf439667428ddf589f80f","626166b218b78fee4e9d8d4c","626186cdc24aef662f6dfada","16","1876","
        <div class=""text-container"">
            <h1>Welcome to the study!</h1>
            
            <div class=""text-left"">
                <p>
                    In this study, we are interested in how people think about different Google Street View images. Google Street View takes pictures of streets used for Google Earth and Google Maps. You’ll see Google Street View images of different places and answer some questions about each one.
                </p>
            </div>
            
            <img src='
            https://maps.googleapis.com/maps/api/streetview?size=640x320
            &location=37.783631,-122.432766
            &heading=80
            &pitch=2
            &fov=100
            &radius=150
            &key=AIzaSyC2OxRDg6qlzZDj7j0UAD2XyE0qWokLvvs
            &source=outdoor'>
        
            <br>
        <br>
    ","0","","","","","","","","","","","","","","","","","","","","","","","","","","","","",""
"instructions","html-button-response","5","29877","0.0-2.0-3.0","60fdf439667428ddf589f80f","626166b218b78fee4e9d8d4c","626186cdc24aef662f6dfada","16","13394","
        <style>
            img.small {
            max-width: 100px;
            }
            li {
            text-indent: 40px;
            }
        </style>

        <div class=""text-container text-left"">
            <p>For each picture, we’d like your impressions of the scene:</p>
            
            <hr>
                Are there <b>clear, distinct boundaries</b> between objects in the scene, or are the <b>boundaries ambiguous or unclear</b>?
                
                <li>clear, distinct boundaries: <img class=""small"" src=""assets/img/ambiguous-low.png""></li>
                <li>ambiguous or unclear boundaries: <img class=""small"" src=""assets/img/ambiguous-high.png""></li>
            <hr>
            <br>
                Are there <b>only a few different objects</b> in the scene, or is there <b>a large number</b>?
            <br><br>
            <hr>
                Are only <b>a few parts</b> of the scene <b>invisible or obscured</b>, or are <b>many parts invisible or obscured</b>?
                
                <li>a few parts invisible or obscured: <img class=""small"" src=""assets/img/invisible-low.png""></li>
                <li>many parts invisible or obscured: <img class=""small"" src=""assets/img/invisible-high.png""></li>
            <hr>
            <br>
                Does the scene look <b>organized</b> or <b>chaotic</b> to you?
            <br><br>
            <hr>
            
            <p>
                There are no right or wrong answers: we are interested in <b>your</b> impression. Note that some images might have individual buildings or faces blurred for privacy. Please ignore these when making your judgments.
            </p>
        </div>
        <br>
    ","0","","","","","","","","","","","","","","","","","","","","","","","","","","","","",""
"instructions","html-button-response","6","31141","0.0-2.0-4.0","60fdf439667428ddf589f80f","626166b218b78fee4e9d8d4c","626186cdc24aef662f6dfada","16","1262","
        <div class=""text-container text-left"">
            <p>Please make sure you are doing this study in an area where you can focus and complete the survey in one sitting.</p>

            <p>Don’t spend too much time on any one picture, and, again go with your gut impression!</p>
            
            <p>The study should take about 30 minutes. We’ll let you know when you’re halfway through.</p>
        </div>
            
        <h3>Ready? Click next to get started!</h3>
        <br>
    ","0","","","","","","","","","","","","","","","","","","","","","","","","","","","","",""
"trial","survey","7","54387","0.0-2.0-5.0","60fdf439667428ddf589f80f","626166b218b78fee4e9d8d4c","626186cdc24aef662f6dfada","16","23186","","{""P0_Q0"":null,""ambiguous"":2,""objects"":4,""invisible"":3,""chaos"":3}","","","","","","","","","","","","","","","","","[]","Nearby location of The Pearl NYC (us_nyc-c_htl_a_high1)","ChIJH25PJ-dZwokRj_-5BHZLdE0","40.7600987","-73.9843757","US","NYC","CTR","HTL","1596 Broadway, New York, NY 10019, USA","us_nyc-c_htl_b_high1","180","us_nyc-c_htl_b_high1_180"
"trial","survey","8","70409","0.0-2.0-6.0","60fdf439667428ddf589f80f","626166b218b78fee4e9d8d4c","626186cdc24aef662f6dfada","16","16005","","{""P0_Q0"":null,""ambiguous"":4,""objects"":3,""invisible"":4,""chaos"":2}","","","","","","","","","","","","","","","","","[]","Nearby location of Mitchell Elementary School (us_arb_sch_a_4)","ChIJs-axekGvPIgRBvxYNOm48Hc","42.2361096","-83.6952309","US","ARB","ARB","SCH","3318 Williamsburg Rd, Ann Arbor, MI 48108, USA","us_arb_sch_b_4","90","us_arb_sch_b_4_90"
"trial","survey","9","81502","0.0-2.0-7.0","60fdf439667428ddf589f80f","626166b218b78fee4e9d8d4c","626186cdc24aef662f6dfada","16","11078","","{""P0_Q0"":null,""ambiguous"":2,""objects"":2,""invisible"":2,""chaos"":2}","","","","","","","","","","","","","","","","","[]","United States Postal Service","ChIJ7bddbC9ZwokRPh32cXCjIis","40.7414054","-74.0067214","US","NYC","CTR","POS","426A W 14th St, New York, NY 10014, USA","us_nyc-c_pos_a_8","0","us_nyc-c_pos_a_8_0"
"trial","survey","10","99166","0.0-2.0-8.0","60fdf439667428ddf589f80f","626166b218b78fee4e9d8d4c","626186cdc24aef662f6dfada","16","17650","","{""P0_Q0"":null,""ambiguous"":4,""objects"":3,""invisible"":4,""chaos"":2}","","","","","","","","","","","","","","","","","[]","United States Postal Service","ChIJj65Q2Jz2wokR_LoJ8_MV6lI","40.8386238","-73.9389823","US","NYC","CTR","POS","511 W 165th St, New York, NY 10032, USA","us_nyc-c_pos_a_4","270","us_nyc-c_pos_a_4_270"
"trial","survey","11","114328","0.0-2.0-9.0","60fdf439667428ddf589f80f","626166b218b78fee4e9d8d4c","626186cdc24aef662f6dfada","16","15149","","{""P0_Q0"":null,""ambiguous"":2,""objects"":2,""invisible"":2,""chaos"":2}","","","","","","","","","","","","","","","","","[]","United States Postal Service","ChIJt9iTcDz2wokR8BrJr4TbjWQ","40.8049683","-73.9649034","US","NYC","CTR","POS","534 W 112th St, New York, NY 10025, USA","us_nyc-c_pos_a_2","180","us_nyc-c_pos_a_2_180"
"trial","survey","12","133339","0.0-2.0-10.0","60fdf439667428ddf589f80f","626166b218b78fee4e9d8d4c","626186cdc24aef662f6dfada","16","18997","","{""P0_Q0"":null,""ambiguous"":1,""objects"":4,""invisible"":2,""chaos"":1}","","","","","","","","","","","","","","","","","[]","Courtyard by Marriott New York Manhattan Fifth Avenue","CYNYCESC","40.75211","-73.98141","US","NYC","CTR","HTL","3 EAST 40TH ST, NEW YORK, NY 10016","us_nyc-c_htl_a_mid2","270","us_nyc-c_htl_a_mid2_270"
"trial","survey","13","144043","0.0-2.0-11.0","60fdf439667428ddf589f80f","626166b218b78fee4e9d8d4c","626186cdc24aef662f6dfada","16","10690","","{""P0_Q0"":null,""ambiguous"":3,""objects"":3,""invisible"":2,""chaos"":3}","","","","","","","","","","","","","","","","","[]","Nearby location of United States Postal Service (us_nyc-c_pos_a_8)","ChIJEcOl7cBZwokREHeZNl9a5Q0","40.7424383","-74.007802","US","NYC","CTR","POS","60 10th Ave, New York, NY 10014, USA","us_nyc-c_pos_b_8","0","us_nyc-c_pos_b_8_0"
"trial","survey","14","165006","0.0-2.0-12.0","60fdf439667428ddf589f80f","626166b218b78fee4e9d8d4c","626186cdc24aef662f6dfada","16","20952","","{""P0_Q0"":null,""ambiguous"":4,""objects"":2,""invisible"":2,""chaos"":2}","","","","","","","","","","","","","","","","","[]","Nearby location of Days Inn by Wyndham Ann Arbor (us_arb_htl_a_low2)","ChIJMyKc2S2vPIgRmaoMJQDyUQ0","42.251289","-83.682438","US","ARB","ARB","HTL","2489 Gross Rd, Ann Arbor, MI 48108, USA","us_arb_htl_b_low2","180","us_arb_htl_b_low2_180"
"trial","survey","15","179480","0.0-2.0-13.0","60fdf439667428ddf589f80f","626166b218b78fee4e9d8d4c","626186cdc24aef662f6dfada","16","14459","","{""P0_Q0"":null,""ambiguous"":3,""objects"":2,""invisible"":1,""chaos"":1}","","","","","","","","","","","","","","","","","[]","Manually Updated Nearby location of United States Postal Service (us_arb_pos_a_3)","GhIJwCSVKeYbRUARAUenU8PnVMA","42.219341","-83.618069","US","ARB","ARB","POS","1501 S Huron St, Ypsilanti, MI 48197","us_arb_pos_b_3","180","us_arb_pos_b_3_180"
"trial","survey","16","189480","0.0-2.0-14.0","60fdf439667428ddf589f80f","626166b218b78fee4e9d8d4c","626186cdc24aef662f6dfada","16","9987","","{""P0_Q0"":null,""ambiguous"":2,""objects"":2,""invisible"":1,""chaos"":2}","","","","","","","","","","","","","","","","","[]","United States Postal Service","ChIJ2S39Rs6xPIgRFumqYMpJrTE","42.2709374","-83.7748696","US","ARB","ARB","POS","2075 W Stadium Blvd, Ann Arbor, MI 48103, USA","us_arb_pos_a_2","270","us_arb_pos_a_2_270"
"trial","survey","17","210603","0.0-2.0-15.0","60fdf439667428ddf589f80f","626166b218b78fee4e9d8d4c","626186cdc24aef662f6dfada","16","21113","","{""P0_Q0"":null,""ambiguous"":3,""objects"":4,""invisible"":3,""chaos"":2}","","","","","","","","","","","","","","","","","[]","Higashi-Asakusa Elementary School","ChIJQ2511u2OGGAR0Tk3tO-VmJw","35.724431","139.798207","JP","TOK","CTR","SCH","2-chōme-27-19 Higashiasakusa, Taito City, Tokyo 111-0025, Japan","jp_tok-c_sch_a_8","180","jp_tok-c_sch_a_8_180"
"trial","survey","18","227101","0.0-2.0-16.0","60fdf439667428ddf589f80f","626166b218b78fee4e9d8d4c","626186cdc24aef662f6dfada","16","16484","","{""P0_Q0"":null,""ambiguous"":3,""objects"":3,""invisible"":4,""chaos"":3}","","","","","","","","","","","","","","","","","[]","Nearby location of The Williamsburg Hotel (us_nyc-p_htl_a_high1)","ChIJH00_Y11ZwokR19006V8VF7Q","40.7203468","-73.9589785","US","NYC","PER","HTL","84 N 9th St, Brooklyn, NY 11249, USA","us_nyc-p_htl_b_high1","270","us_nyc-p_htl_b_high1_270"
"trial","survey","19","241615","0.0-2.0-17.0","60fdf439667428ddf589f80f","626166b218b78fee4e9d8d4c","626186cdc24aef662f6dfada","16","14501","","{""P0_Q0"":null,""ambiguous"":4,""objects"":4,""invisible"":4,""chaos"":3}","","","","","","","","","","","","","","","","","[]","Nearby location of Ryōgoku Post Office (jp_tok-c_pos_a_5)","ChIJBRNSarKOGGARKk3b5BlK71s","35.696528","139.784235","JP","TOK","CTR","POS","Japan, 〒111-0053 Tokyo, Taito City, Asakusabashi, 1-chōme−2−８ 丸一ビル","jp_tok-c_pos_b_5","270","jp_tok-c_pos_b_5_270"
"trial","survey","20","252752","0.0-2.0-18.0","60fdf439667428ddf589f80f","626166b218b78fee4e9d8d4c","626186cdc24aef662f6dfada","16","11125","","{""P0_Q0"":null,""ambiguous"":2,""objects"":3,""invisible"":4,""chaos"":3}","","","","","","","","","","","","","","","","","[]","3rd Haketa Elementary School","ChIJ-R1gr2OOGGARBama0y6Aw5k","35.733569","139.78608","JP","TOK","PER","SCH","1-chōme-43-1 Arakawa, Arakawa City, Tokyo 116-0002, Japan","jp_tok-p_sch_a_1","180","jp_tok-p_sch_a_1_180"
"trial","survey","21","272202","0.0-2.0-19.0","60fdf439667428ddf589f80f","626166b218b78fee4e9d8d4c","626186cdc24aef662f6dfada","16","19439","","{""P0_Q0"":null,""ambiguous"":5,""objects"":3,""invisible"":5,""chaos"":3}","","","","","","","","","","","","","","","","","[]","Nearby location of United States Postal Service (us_arb_pos_a_4)","ChIJR4RkkESuPIgRZJrbYhGLI8k","42.2762108","-83.7323861","US","ARB","ARB","POS","1315 Washtenaw Ave, Ann Arbor, MI 48104, USA","us_arb_pos_b_4","90","us_arb_pos_b_4_90"
"trial","survey","22","281331","0.0-2.0-20.0","60fdf439667428ddf589f80f","626166b218b78fee4e9d8d4c","626186cdc24aef662f6dfada","16","9118","","{""P0_Q0"":null,""ambiguous"":4,""objects"":3,""invisible"":4,""chaos"":3}","","","","","","","","","","","","","","","","","[]","ORCHARD STREET HOTEL","PWNYC109","40.72117","-73.98894","US","NYC","CTR","HTL","163 ORCHARD STREET, NEW YORK, NY 10002","us_nyc-c_htl_a_low1","180","us_nyc-c_htl_a_low1_180"
"trial","survey","23","295773","0.0-2.0-21.0","60fdf439667428ddf589f80f","626166b218b78fee4e9d8d4c","626186cdc24aef662f6dfada","16","14431","","{""P0_Q0"":null,""ambiguous"":5,""objects"":3,""invisible"":4,""chaos"":5}","","","","","","","","","","","","","","","","","[]","Nearby location of Bell Tower Hotel (us_arb_htl_a_high2)","ChIJuS95eUCuPIgRE9IqLokaozs","42.280115","-83.7411408","US","ARB","ARB","HTL","200 S State St, Ann Arbor, MI 48104, USA","us_arb_htl_b_high2","0","us_arb_htl_b_high2_0"
"trial","survey","24","306023","0.0-2.0-22.0","60fdf439667428ddf589f80f","626166b218b78fee4e9d8d4c","626186cdc24aef662f6dfada","16","10240","","{""P0_Q0"":null,""ambiguous"":4,""objects"":2,""invisible"":3,""chaos"":3}","","","","","","","","","","","","","","","","","[]","Nearby location of Kasai Station Post Office (jp_hik_pos_a_1)","ChIJJ6kVju2HGGAR5jpVAdpfozs","35.6644139","139.8716517","JP","HIK","HIK","POS","3-chōme-33-14 Nakakasai, Edogawa City, Tokyo 134-0083, Japan","jp_hik_pos_b_1","90","jp_hik_pos_b_1_90"
"trial","survey","25","317240","0.0-2.0-23.0","60fdf439667428ddf589f80f","626166b218b78fee4e9d8d4c","626186cdc24aef662f6dfada","16","11207","","{""P0_Q0"":null,""ambiguous"":3,""objects"":2,""invisible"":3,""chaos"":2}","","","","","","","","","","","","","","","","","[]","South Meadows Elementary School","ChIJQaIiMqnOPIgRKzWLjS6IoXg","42.3121005","-84.0238583","US","CHL","CHL","SCH","335 Pierce St, Chelsea, MI 48118, USA","us_chl_sch_a_1","90","us_chl_sch_a_1_90"
"trial","survey","26","332818","0.0-2.0-24.0","60fdf439667428ddf589f80f","626166b218b78fee4e9d8d4c","626186cdc24aef662f6dfada","16","15566","","{""P0_Q0"":null,""ambiguous"":3,""objects"":3,""invisible"":2,""chaos"":3}","","","","","","","","","","","","","","","","","[]","Nearby location of Quality Inn and Suites Ann Arbor Hwy 23 (us_arb_htl_a_mid2)","ChIJUf9k3i2vPIgRY6-MziLWsGc","42.25094","-83.682429","US","ARB","ARB","HTL","2525 Gross Rd, Ann Arbor, MI 48108, USA","us_arb_htl_b_mid2","270","us_arb_htl_b_mid2_270"
"trial","survey","27","342747","0.0-2.0-25.0","60fdf439667428ddf589f80f","626166b218b78fee4e9d8d4c","626186cdc24aef662f6dfada","16","9916","","{""P0_Q0"":null,""ambiguous"":4,""objects"":2,""invisible"":4,""chaos"":3}","","","","","","","","","","","","","","","","","[]","Nearby location of Oizumi Daini Elementary School (jp_tok-p_sch_a_6)","ChIJMaeqHtruGGARm4LZU_WxHzQ","35.7454686","139.5741349","JP","TOK","PER","SCH","4-chōme-32-2 Minamiōizumi, Nerima City, Tokyo 178-0064, Japan","jp_tok-p_sch_b_6","180","jp_tok-p_sch_b_6_180"
"trial","survey","28","351756","0.0-2.0-26.0","60fdf439667428ddf589f80f","626166b218b78fee4e9d8d4c","626186cdc24aef662f6dfada","16","8999","","{""P0_Q0"":null,""ambiguous"":4,""objects"":2,""invisible"":1,""chaos"":2}","","","","","","","","","","","","","","","","","[]","United States Postal Service","ChIJt9iTcDz2wokR8BrJr4TbjWQ","40.8049683","-73.9649034","US","NYC","CTR","POS","534 W 112th St, New York, NY 10025, USA","us_nyc-c_pos_a_2","90","us_nyc-c_pos_a_2_90"
"trial","survey","29","363742","0.0-2.0-27.0","60fdf439667428ddf589f80f","626166b218b78fee4e9d8d4c","626186cdc24aef662f6dfada","16","11975","","{""P0_Q0"":null,""ambiguous"":3,""objects"":2,""invisible"":3,""chaos"":3}","","","","","","","","","","","","","","","","","[]","USPS Bayside Carrier Annex","ChIJKfnG5OFhwokRDpTOYU_3G4g","40.7633707","-73.7662444","US","NYC","PER","POS","41-29 216th St, Bayside, NY 11361, USA","us_nyc-p_pos_a_1","0","us_nyc-p_pos_a_1_0"
"trial","survey","30","372391","0.0-2.0-28.0","60fdf439667428ddf589f80f","626166b218b78fee4e9d8d4c","626186cdc24aef662f6dfada","16","8638","","{""P0_Q0"":null,""ambiguous"":5,""objects"":3,""invisible"":4,""chaos"":3}","","","","","","","","","","","","","","","","","[]","Nearby location of Sasazuka Elementary School (jp_tok-c_sch_a_6)","ChIJcyp_VT3zGGARh4qzbdhRhms","35.6750919","139.6707803","JP","TOK","CTR","SCH","Japan, 〒151-0073 Tokyo, Shibuya City, Sasazuka, 1-chōme−52−３ ルアンビル","jp_tok-c_sch_b_6","270","jp_tok-c_sch_b_6_270"
"trial","survey","31","393937","0.0-2.0-29.0","60fdf439667428ddf589f80f","626166b218b78fee4e9d8d4c","626186cdc24aef662f6dfada","16","21534","","{""P0_Q0"":null,""ambiguous"":4,""objects"":4,""invisible"":4,""chaos"":3}","","","","","","","","","","","","","","","","","[]","Nearby location of Ōmori Bellport Post Office (jp_hik_pos_a_2)","ChIJ7Ywa2cxhGGARziYl93kj-_E","35.5874802","139.7328359","JP","HIK","HIK","POS","3-chōme-35-8 Minamiōi, Shinagawa City, Tokyo 140-0013, Japan","jp_hik_pos_b_2","180","jp_hik_pos_b_2_180"
"trial","survey","32","404859","0.0-2.0-30.0","60fdf439667428ddf589f80f","626166b218b78fee4e9d8d4c","626186cdc24aef662f6dfada","16","10910","","{""P0_Q0"":null,""ambiguous"":2,""objects"":2,""invisible"":2,""chaos"":2}","","","","","","","","","","","","","","","","","[]","Ōmori Bellport Post Office","ChIJFXY_sTJgGGARZtQCo-Qdz_M","35.5888587","139.7314559","JP","HIK","HIK","POS","6-chōme-26-3 Minamiōi, Shinagawa City, Tokyo 140-0013, Japan","jp_hik_pos_a_2","270","jp_hik_pos_a_2_270"
"trial","survey","33","415188","0.0-2.0-31.0","60fdf439667428ddf589f80f","626166b218b78fee4e9d8d4c","626186cdc24aef662f6dfada","16","10321","","{""P0_Q0"":null,""ambiguous"":4,""objects"":3,""invisible"":4,""chaos"":2}","","","","","","","","","","","","","","","","","[]","Marunouchi Center Bldg. Post Office","ChIJEXvU5PiLGGARr5EAERW7XhI","35.6836406","139.7655925","JP","TOK","CTR","POS","1-chōme-6-1 Marunouchi, Chiyoda City, Tokyo 100-0005, Japan","jp_tok-c_pos_a_8","0","jp_tok-c_pos_a_8_0"
"trial","survey","34","422973","0.0-2.0-32.0","60fdf439667428ddf589f80f","626166b218b78fee4e9d8d4c","626186cdc24aef662f6dfada","16","7776","","{""P0_Q0"":null,""ambiguous"":4,""objects"":4,""invisible"":3,""chaos"":5}","","","","","","","","","","","","","","","","","[]","Kasai Station Post Office","ChIJY2FCCu2HGGARFTMPVij0n94","35.6656728","139.8727342","JP","HIK","HIK","POS","3-chōme-29-19 Nakakasai, Edogawa City, Tokyo 134-0083, Japan","jp_hik_pos_a_1","180","jp_hik_pos_a_1_180"
"trial","survey","35","433822","0.0-2.0-33.0","60fdf439667428ddf589f80f","626166b218b78fee4e9d8d4c","626186cdc24aef662f6dfada","16","10839","","{""P0_Q0"":null,""ambiguous"":3,""objects"":2,""invisible"":3,""chaos"":3}","","","","","","","","","","","","","","","","","[]","Nearby location of Nakano Sun Cuore Post Office (jp_tok-p_pos_a_2)","ChIJ_6f_XpryGGARylU0pXEPcbM","35.7102066","139.6632353","JP","TOK","PER","POS","2-chōme-30-7 Arai, Nakano City, Tokyo 165-0026, Japan","jp_tok-p_pos_b_2","0","jp_tok-p_pos_b_2_0"
"trial","survey","36","448352","0.0-2.0-34.0","60fdf439667428ddf589f80f","626166b218b78fee4e9d8d4c","626186cdc24aef662f6dfada","16","14518","","{""P0_Q0"":null,""ambiguous"":4,""objects"":4,""invisible"":3,""chaos"":3}","","","","","","","","","","","","","","","","","[]","台東小学校跡","ChIJPzL6D6mPGGAROc_ZDczQMBw","35.7231123","139.7860147","JP","TOK","CTR","SCH","3-chōme-1-30 Shitaya, Taito City, Tokyo 110-0004, Japan","jp_tok-c_sch_a_1","270","jp_tok-c_sch_a_1_270"
"half-way","html-button-response","37","464108","0.0-2.0-35.0","60fdf439667428ddf589f80f","626166b218b78fee4e9d8d4c","626186cdc24aef662f6dfada","16","null","
            <h3>You are now half way through the study.</h3>
            <p>Please take a quick, 15-second break before you continue.</p>
            <img src='assets/img/countdown-15.gif'>
            <p>The study will automatically advance forward after the countdown is complete. However, you may click ""Next"" to advance forward now if you wish.</p>
        ","null","","","","","","","","","","","","","","","","","","","","","","","","","","","","",""
"attention-check","survey","38","475842","0.0-2.0-36.0","60fdf439667428ddf589f80f","626166b218b78fee4e9d8d4c","626186cdc24aef662f6dfada","16","11714","","{""P0_Q0"":null,""ambiguous"":null,""objects"":null,""invisible"":null,""chaos"":null}","","","","","","","","","","","","","","","","","[]","","","","","","","","","","","",""
"trial","survey","39","492035","0.0-2.0-37.0","60fdf439667428ddf589f80f","626166b218b78fee4e9d8d4c","626186cdc24aef662f6dfada","16","16180","","{""P0_Q0"":null,""ambiguous"":4,""objects"":2,""invisible"":4,""chaos"":3}","","","","","","","","","","","","","","","","","[]","Nearby location of Rakuten STAY HOUSE×WILLSTYLE 八幡堀 (jp_hik_htl_a_high1)","ChIJ-fEvCXl5AWAR8xruOW8CYd0","35.1408592","136.0976484","JP","HIK","HIK","HTL","485-9 Tagachō, Omihachiman, Shiga 523-0821, Japan","jp_hik_htl_b_high1","0","jp_hik_htl_b_high1_0"
"trial","survey","40","505237","0.0-2.0-38.0","60fdf439667428ddf589f80f","626166b218b78fee4e9d8d4c","626186cdc24aef662f6dfada","16","13191","","{""P0_Q0"":null,""ambiguous"":3,""objects"":2,""invisible"":5,""chaos"":3}","","","","","","","","","","","","","","","","","[]","Hotel JAL City Tokyo Toyosu","NKTYOHJC","35.68408","139.80885","JP","TOK","PER","HTL","6 4 20 TOYOSU KOTO KU, TOKYO 1350061","jp_tok-p_htl_a_mid1","180","jp_tok-p_htl_a_mid1_180"
"trial","survey","41","518255","0.0-2.0-39.0","60fdf439667428ddf589f80f","626166b218b78fee4e9d8d4c","626186cdc24aef662f6dfada","16","13004","","{""P0_Q0"":null,""ambiguous"":2,""objects"":2,""invisible"":3,""chaos"":2}","","","","","","","","","","","","","","","","","[]","Minami-Ikebukuro Post Office","ChIJZ0rDTmiNGGARmRNW8DDznoU","35.7271243","139.7133376","JP","TOK","CTR","POS","2-chōme-24-1 Minamiikebukuro, Toshima City, Tokyo 171-0022, Japan","jp_tok-c_pos_a_6","0","jp_tok-c_pos_a_6_0"
"trial","survey","42","532831","0.0-2.0-40.0","60fdf439667428ddf589f80f","626166b218b78fee4e9d8d4c","626186cdc24aef662f6dfada","16","14564","","{""P0_Q0"":null,""ambiguous"":5,""objects"":2,""invisible"":2,""chaos"":3}","","","","","","","","","","","","","","","","","[]","United States Postal Service","ChIJRXiunQP0wokRdMaoXdky9Do","40.8589783","-73.9311402","US","NYC","CTR","POS","4558 Broadway, New York, NY 10040, USA","us_nyc-c_pos_a_5","180","us_nyc-c_pos_a_5_180"
"trial","survey","43","545425","0.0-2.0-41.0","60fdf439667428ddf589f80f","626166b218b78fee4e9d8d4c","626186cdc24aef662f6dfada","16","12583","","{""P0_Q0"":null,""ambiguous"":2,""objects"":3,""invisible"":4,""chaos"":4}","","","","","","","","","","","","","","","","","[]","Nearby location of United States Postal Service (us_arb_pos_a_2)","ChIJlwkqdc6xPIgREfyzp428070","42.2697109","-83.7737698","US","ARB","ARB","POS","2019 W Stadium Blvd, Ann Arbor, MI 48103, USA","us_arb_pos_b_2","0","us_arb_pos_b_2_0"
"trial","survey","44","576545","0.0-2.0-42.0","60fdf439667428ddf589f80f","626166b218b78fee4e9d8d4c","626186cdc24aef662f6dfada","16","31110","","{""P0_Q0"":null,""ambiguous"":3,""objects"":3,""invisible"":4,""chaos"":4}","","","","","","","","","","","","","","","","","[]","Nearby location of Waseda Daigaku-mae Post Office (jp_hik_pos_a_4)","ChIJ3fFikwKNGGARdbidMhgiTgs","35.7066137","139.7233789","JP","HIK","HIK","POS","508 Wasedatsurumakichō, Shinjuku City, Tokyo 162-0041, Japan","jp_hik_pos_b_4","90","jp_hik_pos_b_4_90"
"trial","survey","45","585842","0.0-2.0-43.0","60fdf439667428ddf589f80f","626166b218b78fee4e9d8d4c","626186cdc24aef662f6dfada","16","9285","","{""P0_Q0"":null,""ambiguous"":2,""objects"":3,""invisible"":2,""chaos"":3}","","","","","","","","","","","","","","","","","[]","Sakata Elementary School","ChIJVW6XQ3csAmARmDgDxmrtsD8","35.33759","136.289157","JP","HIK","HIK","SCH","508 Ukano, Maibara, Shiga 521-0062, Japan","jp_hik_sch_a_4","180","jp_hik_sch_a_4_180"
"trial","survey","46","595180","0.0-2.0-44.0","60fdf439667428ddf589f80f","626166b218b78fee4e9d8d4c","626186cdc24aef662f6dfada","16","9327","","{""P0_Q0"":null,""ambiguous"":2,""objects"":2,""invisible"":2,""chaos"":2}","","","","","","","","","","","","","","","","","[]","Hikoneatohoteru","ChIJcSdJDVfUA2ARZ1X1w0kURVw","35.2392938","136.255227","JP","HIK","HIK","HTL","1707-1 Takamiyachō, Hikone, Shiga 522-0201, Japan","jp_hik_htl_a_low1","180","jp_hik_htl_a_low1_180"
"trial","survey","47","603485","0.0-2.0-45.0","60fdf439667428ddf589f80f","626166b218b78fee4e9d8d4c","626186cdc24aef662f6dfada","16","8293","","{""P0_Q0"":null,""ambiguous"":3,""objects"":2,""invisible"":4,""chaos"":3}","","","","","","","","","","","","","","","","","[]","Rakuten STAY HOUSE×WILLSTYLE 八幡堀","ChIJ29I3jA95AWAR_5xuRG3klyw","35.1418554","136.0963056","JP","HIK","HIK","HTL","580-6 Tagachō, Omihachiman, Shiga 523-0821, Japan","jp_hik_htl_a_high1","270","jp_hik_htl_a_high1_270"
"trial","survey","48","612414","0.0-2.0-46.0","60fdf439667428ddf589f80f","626166b218b78fee4e9d8d4c","626186cdc24aef662f6dfada","16","8917","","{""P0_Q0"":null,""ambiguous"":2,""objects"":2,""invisible"":2,""chaos"":2}","","","","","","","","","","","","","","","","","[]","Nearby location of HOTEL ALLAMANDA AOYAMA (jp_tok-c_htl_a_high1)","ChIJBeIIXpyMGGARp8F4yBa84pg","35.6704599","139.7189166","JP","TOK","CTR","HTL","2-chōme-22-14 Minamiaoyama, Minato City, Tokyo 107-0062, Japan","jp_tok-c_htl_b_high1","180","jp_tok-c_htl_b_high1_180"
"trial","survey","49","627327","0.0-2.0-47.0","60fdf439667428ddf589f80f","626166b218b78fee4e9d8d4c","626186cdc24aef662f6dfada","16","14903","","{""P0_Q0"":null,""ambiguous"":4,""objects"":2,""invisible"":1,""chaos"":3}","","","","","","","","","","","","","","","","","[]","Nearby location of Adahi Sano Post Office (jp_hik_pos_a_3)","ChIJ687ZfeOPGGARr0sg29_jaNA","35.7854552","139.8422615","JP","HIK","HIK","POS","1-chōme-19-3 Sano, Adachi City, Tokyo 121-0053, Japan","jp_hik_pos_b_3","180","jp_hik_pos_b_3_180"
"trial","survey","50","639195","0.0-2.0-48.0","60fdf439667428ddf589f80f","626166b218b78fee4e9d8d4c","626186cdc24aef662f6dfada","16","11859","","{""P0_Q0"":null,""ambiguous"":3,""objects"":1,""invisible"":3,""chaos"":3}","","","","","","","","","","","","","","","","","[]","Nearby location of Graduate Ann Arbor (us_arb_htl_a_high1)","ChIJYetfYhWuPIgRy9Fx8ebdnWE","42.2824654","-83.7429681","US","ARB","ARB","HTL","501 E Ann St, Ann Arbor, MI 48104, USA","us_arb_htl_b_high1","270","us_arb_htl_b_high1_270"
"trial","survey","51","658364","0.0-2.0-49.0","60fdf439667428ddf589f80f","626166b218b78fee4e9d8d4c","626186cdc24aef662f6dfada","16","19159","","{""P0_Q0"":null,""ambiguous"":2,""objects"":4,""invisible"":3,""chaos"":2}","","","","","","","","","","","","","","","","","[]","Nearby location of United States Postal Service (us_nyc-c_pos_a_5)","ChIJTw7oFwP0wokR0VL0nLNaknc","40.857723","-73.93222","US","NYC","CTR","POS","Broadway/W 192 St, New York, NY 10040, USA","us_nyc-c_pos_b_5","180","us_nyc-c_pos_b_5_180"
"trial","survey","52","675685","0.0-2.0-50.0","60fdf439667428ddf589f80f","626166b218b78fee4e9d8d4c","626186cdc24aef662f6dfada","16","17308","","{""P0_Q0"":null,""ambiguous"":2,""objects"":2,""invisible"":2,""chaos"":3}","","","","","","","","","","","","","","","","","[]","United States Postal Service","ChIJHz5qxfxEwokRJQRRKHqw9JQ","40.6054665","-73.9794117","US","NYC","PER","POS","1714 W 6th St Ste 1, Brooklyn, NY 11223, USA","us_nyc-p_pos_a_6","270","us_nyc-p_pos_a_6_270"
"trial","survey","53","691375","0.0-2.0-51.0","60fdf439667428ddf589f80f","626166b218b78fee4e9d8d4c","626186cdc24aef662f6dfada","16","15678","","{""P0_Q0"":null,""ambiguous"":5,""objects"":2,""invisible"":2,""chaos"":2}","","","","","","","","","","","","","","","","","[]","Nearby location of TownePlace Suites by Marriott Ann Arbor (us_arb_htl_a_mid1)","ChIJ71gCcu-vPIgRi_B5Ob5B76o","42.2367203","-83.7509139","US","ARB","ARB","HTL","1126 Lariat Loop, Ann Arbor, MI 48108, USA","us_arb_htl_b_mid1","90","us_arb_htl_b_mid1_90"
"trial","survey","54","705521","0.0-2.0-52.0","60fdf439667428ddf589f80f","626166b218b78fee4e9d8d4c","626186cdc24aef662f6dfada","16","14136","","{""P0_Q0"":null,""ambiguous"":3,""objects"":2,""invisible"":2,""chaos"":2}","","","","","","","","","","","","","","","","","[]","Manually Updated Jittered SV for Nearby location of The Tokyo Station Hotel (jp_tok-c_htl_a_high2) (jp_tok-c_htl_b_high2)","ChIJYczFnPyLGGARpA9nubZ6QGc","35.67883","139.768186","JP","TOK","CTR","HTL","Tokyo Sta. Yaesuguchi(Yaesu Exit), 2-chōme-3 Yaesu, Chuo City, Tokyo 104-0028, Japan","jp_tok-c_htl_b_high2","270","jp_tok-c_htl_b_high2_270"
"trial","survey","55","716867","0.0-2.0-53.0","60fdf439667428ddf589f80f","626166b218b78fee4e9d8d4c","626186cdc24aef662f6dfada","16","11335","","{""P0_Q0"":null,""ambiguous"":2,""objects"":1,""invisible"":2,""chaos"":2}","","","","","","","","","","","","","","","","","[]","Jingūmae 6 Post Office","ChIJO43ODKSMGGAR5KiNqtge1mc","35.6666411","139.7050847","JP","TOK","CTR","POS","6-chōme-12-28 Jingūmae, Shibuya City, Tokyo 150-0001, Japan","jp_tok-c_pos_a_2","270","jp_tok-c_pos_a_2_270"
"trial","survey","56","733628","0.0-2.0-54.0","60fdf439667428ddf589f80f","626166b218b78fee4e9d8d4c","626186cdc24aef662f6dfada","16","16751","","{""P0_Q0"":null,""ambiguous"":5,""objects"":1,""invisible"":3,""chaos"":4}","","","","","","","","","","","","","","","","","[]","Nearby location of Mukaihara Elementary School (jp_tok-p_sch_a_4)","ChIJVRTxz0jtGGAR3d5pAzj-FQQ","35.7402285","139.6828032","JP","TOK","PER","SCH","2-chōme-7-6 Mukaihara, Itabashi City, Tokyo 173-0036, Japan","jp_tok-p_sch_b_4","90","jp_tok-p_sch_b_4_90"
"trial","survey","57","741269","0.0-2.0-55.0","60fdf439667428ddf589f80f","626166b218b78fee4e9d8d4c","626186cdc24aef662f6dfada","16","7631","","{""P0_Q0"":null,""ambiguous"":2,""objects"":2,""invisible"":4,""chaos"":3}","","","","","","","","","","","","","","","","","[]","Higashi-Asakusa Elementary School","ChIJQ2511u2OGGAR0Tk3tO-VmJw","35.724431","139.798207","JP","TOK","CTR","SCH","2-chōme-27-19 Higashiasakusa, Taito City, Tokyo 111-0025, Japan","jp_tok-c_sch_a_8","0","jp_tok-c_sch_a_8_0"
"trial","survey","58","751525","0.0-2.0-56.0","60fdf439667428ddf589f80f","626166b218b78fee4e9d8d4c","626186cdc24aef662f6dfada","16","10245","","{""P0_Q0"":null,""ambiguous"":4,""objects"":1,""invisible"":4,""chaos"":4}","","","","","","","","","","","","","","","","","[]","Mukaihara Elementary School","ChIJr51ciUjtGGARi9CcLnWMRwg","35.7416333","139.6818636","JP","TOK","PER","SCH","2-chōme-34-1 Mukaihara, Itabashi City, Tokyo 173-0036, Japan","jp_tok-p_sch_a_4","270","jp_tok-p_sch_a_4_270"
"trial","survey","59","759167","0.0-2.0-57.0","60fdf439667428ddf589f80f","626166b218b78fee4e9d8d4c","626186cdc24aef662f6dfada","16","7631","","{""P0_Q0"":null,""ambiguous"":3,""objects"":2,""invisible"":4,""chaos"":3}","","","","","","","","","","","","","","","","","[]","Daiwa Roynet Hotel Tokyo-Osaki","HSTYOAIZ","35.61815","139.72674","JP","TOK","PER","HTL","2-1-3, OSAKI, TOKYO 141-0032","jp_tok-p_htl_a_low2","90","jp_tok-p_htl_a_low2_90"
"trial","survey","60","770089","0.0-2.0-58.0","60fdf439667428ddf589f80f","626166b218b78fee4e9d8d4c","626186cdc24aef662f6dfada","16","10910","","{""P0_Q0"":null,""ambiguous"":2,""objects"":3,""invisible"":2,""chaos"":3}","","","","","","","","","","","","","","","","","[]","Nagahama Shiritsu Torahime Elementary School","ChIJWVB8Ap8oAmARFLmHXCq8zOo","35.4207316","136.2639813","JP","TOR","TOR","SCH","88 Gomura, Nagahama, Shiga 529-0141, Japan","jp_tor_sch_a_1","270","jp_tor_sch_a_1_270"
"trial","survey","61","779129","0.0-2.0-59.0","60fdf439667428ddf589f80f","626166b218b78fee4e9d8d4c","626186cdc24aef662f6dfada","16","9030","","{""P0_Q0"":null,""ambiguous"":2,""objects"":2,""invisible"":2,""chaos"":3}","","","","","","","","","","","","","","","","","[]","Nearby location of 台東小学校跡 (jp_tok-c_sch_a_1)","ChIJRW4MQI-OGGARtWvlCd2h0KY","35.7243493","139.7843592","JP","TOK","CTR","SCH","Japan, 〒110-0003 Tokyo, Taito City, Negishi, 4-chōme−1−３ 安楽寺","jp_tok-c_sch_b_1","90","jp_tok-c_sch_b_1_90"
"trial","survey","62","792499","0.0-2.0-60.0","60fdf439667428ddf589f80f","626166b218b78fee4e9d8d4c","626186cdc24aef662f6dfada","16","13361","","{""P0_Q0"":null,""ambiguous"":1,""objects"":1,""invisible"":3,""chaos"":2}","","","","","","","","","","","","","","","","","[]","Nearby location of South Meadows Elementary School (us_chl_sch_a_1)","ChIJFQ7Lva7OPIgR_c0d98fxzFI","42.3109393","-84.0229592","US","CHL","CHL","SCH","511 Maywood St, Chelsea, MI 48118, USA","us_chl_sch_b_1","270","us_chl_sch_b_1_270"
"trial","survey","63","802428","0.0-2.0-61.0","60fdf439667428ddf589f80f","626166b218b78fee4e9d8d4c","626186cdc24aef662f6dfada","16","9918","","{""P0_Q0"":null,""ambiguous"":4,""objects"":1,""invisible"":3,""chaos"":2}","","","","","","","","","","","","","","","","","[]","Nearby location of United States Postal Service (us_arb_pos_a_4)","ChIJR4RkkESuPIgRZJrbYhGLI8k","42.2762108","-83.7323861","US","ARB","ARB","POS","1315 Washtenaw Ave, Ann Arbor, MI 48104, USA","us_arb_pos_b_4","0","us_arb_pos_b_4_0"
"trial","survey","64","817638","0.0-2.0-62.0","60fdf439667428ddf589f80f","626166b218b78fee4e9d8d4c","626186cdc24aef662f6dfada","16","15199","","{""P0_Q0"":null,""ambiguous"":2,""objects"":3,""invisible"":3,""chaos"":2}","","","","","","","","","","","","","","","","","[]","Nearby location of Léman Manhattan Preparatory School (us_nyc-c_sch_a_8)","ChIJAVYKVhFawokRXaCXY0rBkQY","40.7050863","-74.0127568","US","NYC","CTR","SCH","9 Beaver St, New York, NY 10004, USA","us_nyc-c_sch_b_8","180","us_nyc-c_sch_b_8_180"
"trial","survey","65","841041","0.0-2.0-63.0","60fdf439667428ddf589f80f","626166b218b78fee4e9d8d4c","626186cdc24aef662f6dfada","16","23390","","{""P0_Q0"":null,""ambiguous"":2,""objects"":3,""invisible"":3,""chaos"":3}","","","","","","","","","","","","","","","","","[]","Nearby location of PS 146 Anna M. Short School (us_nyc-c_sch_a_5)","ChIJ2YTRCqpYwokRoILxg84fVx0","40.788425","-73.9404164","US","NYC","CTR","SCH","416 E 105th St, New York, NY 10029, USA","us_nyc-c_sch_b_5","180","us_nyc-c_sch_b_5_180"
"trial","survey","66","869272","0.0-2.0-64.0","60fdf439667428ddf589f80f","626166b218b78fee4e9d8d4c","626186cdc24aef662f6dfada","16","28221","","{""P0_Q0"":null,""ambiguous"":3,""objects"":2,""invisible"":4,""chaos"":2}","","","","","","","","","","","","","","","","","[]","Nearby location of Ryōgoku Post Office (jp_tok-c_pos_a_5)","ChIJBRNSarKOGGARKk3b5BlK71s","35.696528","139.784235","JP","TOK","CTR","POS","Japan, 〒111-0053 Tokyo, Taito City, Asakusabashi, 1-chōme−2−８ 丸一ビル","jp_tok-c_pos_b_5","0","jp_tok-c_pos_b_5_0"
"trial","survey","67","879161","0.0-2.0-65.0","60fdf439667428ddf589f80f","626166b218b78fee4e9d8d4c","626186cdc24aef662f6dfada","16","9880","","{""P0_Q0"":null,""ambiguous"":3,""objects"":2,""invisible"":4,""chaos"":2}","","","","","","","","","","","","","","","","","[]","Tokyo High Court Post Office","ChIJ8YHhS_OLGGARiMJcBz0Ip60","35.6752316","139.753074","JP","TOK","CTR","POS","1-chōme-1-4 Kasumigaseki, Chiyoda City, Tokyo 100-0013, Japan","jp_tok-c_pos_a_1","180","jp_tok-c_pos_a_1_180"
"trial","survey","68","888197","0.0-2.0-66.0","60fdf439667428ddf589f80f","626166b218b78fee4e9d8d4c","626186cdc24aef662f6dfada","16","9027","","{""P0_Q0"":null,""ambiguous"":2,""objects"":2,""invisible"":3,""chaos"":2}","","","","","","","","","","","","","","","","","[]","Courtyard by Marriott New York Manhattan Fifth Avenue","CYNYCESC","40.75211","-73.98141","US","NYC","CTR","HTL","3 EAST 40TH ST, NEW YORK, NY 10016","us_nyc-c_htl_a_mid2","0","us_nyc-c_htl_a_mid2_0"
"trial","survey","69","895099","0.0-2.0-67.0","60fdf439667428ddf589f80f","626166b218b78fee4e9d8d4c","626186cdc24aef662f6dfada","16","6892","","{""P0_Q0"":null,""ambiguous"":2,""objects"":2,""invisible"":4,""chaos"":4}","","","","","","","","","","","","","","","","","[]","us_nyc-p_sch_a_5","ChIJ-7aNoRZgwokRFC2hF6Idg2E","40.7572054","-73.8229217","US","NYC","PER","SCH","14231 Franklin Ave, Queens, NY 11355, USA","us_nyc-p_sch_b_5","90","us_nyc-p_sch_b_5_90"
"demographics","survey-html-form","70","904990","0.0-2.0-68.0","60fdf439667428ddf589f80f","626166b218b78fee4e9d8d4c","626186cdc24aef662f6dfada","16","9888","","{""age"":""25"",""gender"":""male"",""gender-self-describe"":"""",""zipcode"":""18954""}","","","","","","","","","","","","","","","","","","","","","","","","","","","","",""
"demographics","survey","71","908027","0.0-2.0-69.0","60fdf439667428ddf589f80f","626166b218b78fee4e9d8d4c","626186cdc24aef662f6dfada","16","3016","","{""P0_Q0"":null,""outsideUS"":""No"",""outsideUS_years"":""""}","","","","","","","","","","","","","","","","","[]","","","","","","","","","","","",""
"end-survey","survey-text","72","909239","0.0-2.0-70.0","60fdf439667428ddf589f80f","626166b218b78fee4e9d8d4c","626186cdc24aef662f6dfada","16","1207","","{""Q0"":""""}","","","","","","","","","","","","","","","","","","","","","","","","","","","","",""
