"task","trial_type","trial_index","time_elapsed","internal_node_id","subject_id","study_id","session_id","group","rt","stimulus","response","width","height","webaudio","browser","browser_version","mobile","os","fullscreen","vsync_rate","webcam","microphone","success","timeout","failed_images","failed_audio","failed_video","accuracy","name","place_id","lat","lng","culture","loc1","loc2","loct","address","loc_id_prev","angle","loc_id"
"pavlovia-init","pavlovia","0","1130","0.0-0.0","5d506e6d4040a40016bb186a","625e209c10a247530e1c6964","625eee9d64cfddb7cc5b8ece","14","","","","","","","","","","","","","","","","","","","","","","","","","","","","","","","",""
"consent","html-button-response","1","23245","0.0-1.0","5d506e6d4040a40016bb186a","625e209c10a247530e1c6964","625eee9d64cfddb7cc5b8ece","14","22109","
        <div style=""font-size: 80%; max-width:700px"">
            <h2>Informed Consent</h2><br>
        
            <div style=""text-align: left"">
            <h3>Streetscape Perceptions</h3>
            <b>HUM00189138</b>
            <br><hr>
        
            <h4>DESCRIPTION</h4>
            <p>
                In this study, you will view Google Street View images. You will then answer questions about your impressions of the streetscapes presented in those images.
            </p><br>
        
            <h4>TIME INVOLVEMENT</h4>
            <p>Your participation will take approximately 30 minutes.</p><br>
        
            <h4>RISKS AND BENEFITS</h4>
            <p>
                The risks associated with this study are minimal. The benefits which may reasonably be expected to result from this study are none.  We cannot and do not guarantee or promise that you will receive any benefits from this study. 
            </p><br>
        
            <h4>PAYMENTS</h4>
            <p>You will be paid <b>$5.00</b> for your participation.</p><br>
        
            <h4>SUBJECT'S RIGHTS</h4>
            <p>
                If you have read this form and have decided to participate in this project, please understand your participation is voluntary and you have the right to withdraw your consent or discontinue participation at any time without penalty or loss of benefits to which you are otherwise entitled.  The alternative is not to participate.  You have the right to refuse to answer particular questions.  
            </p>
        
            <p>
                Your individual privacy will be maintained in all published and written data resulting from the study. Your responses will be kept confidential: you are given a participant code, and no one, not even the research team, can match that code with your identity. Your collected information may also be shared with other researchers as part of our dataset.
            </p><br>
        
            <h4>CONTACT INFORMATION</h4>
            <p>
                Questions: If you have any questions, concerns or complaints about this research, its procedures, risks and benefits, contact the Protocol Director, Nicholas Camp, npcamp@umich.edu, (443) 851-6783.
            </p>
        
            <p>
                If you have questions about your rights as a research participant, or wish to obtain information, ask questions or discuss any concerns about this study with someone other than the researcher(s), please contact the following:
                <br><br>
        
                University of Michigan<br>
                Health Sciences and Behavioral Sciences Institutional Review Board
                (IRB-HSBS)<br>
                2800 Plymouth Road <br>
                Building 520, Room 1169 <br>
                Ann Arbor, MI 48109-2800 <br>
                Telephone: 734-936-0933 or toll free (866) 936-0933 <br>
                Fax: 734-936-1852 <br />
                E-mail: irbhsbs@umich.edu <br>
            </p>
        
            <p>
                You can also contact the University of Michigan Compliance Hotline at 1-866-990-0111. You may also print this consent form to keep.
            </p>
            <br>
        
            <div class=""alert alert-warning""><b>
                Do you consent to participate in this study? If you consent to participate in this study, please click “Accept and continue.”
            </b></div>
            </div>
        </div>
    ","1","","","","","","","","","","","","","","","","","","","","","","","","","","","","",""
"browser-check","browser-check","2","24248","0.0-2.0-0.0","5d506e6d4040a40016bb186a","625e209c10a247530e1c6964","625eee9d64cfddb7cc5b8ece","14","","","","1366","625","true","chrome","100.0.4896","false","Windows 10","true","61.07","true","true","","","","","","","","","","","","","","","","","",""
"","preload","3","26090","0.0-2.0-1.0","5d506e6d4040a40016bb186a","625e209c10a247530e1c6964","625eee9d64cfddb7cc5b8ece","14","","","","","","","","","","","","","","","true","false","[]","[]","[]","","","","","","","","","","","","",""
"instructions","html-button-response","4","40872","0.0-2.0-2.0","5d506e6d4040a40016bb186a","625e209c10a247530e1c6964","625eee9d64cfddb7cc5b8ece","14","14781","
        <div class=""text-container"">
            <h1>Welcome to the study!</h1>
            
            <div class=""text-left"">
                <p>
                    In this study, we are interested in how people think about different Google Street View images. Google Street View takes pictures of streets used for Google Earth and Google Maps. You’ll see Google Street View images of different places and answer some questions about each one.
                </p>
            </div>
            
            <img src='
            https://maps.googleapis.com/maps/api/streetview?size=640x320
            &location=37.783631,-122.432766
            &heading=80
            &pitch=2
            &fov=100
            &radius=150
            &key=AIzaSyC2OxRDg6qlzZDj7j0UAD2XyE0qWokLvvs
            &source=outdoor'>
        
            <br>
        <br>
    ","0","","","","","","","","","","","","","","","","","","","","","","","","","","","","",""
"instructions","html-button-response","5","69395","0.0-2.0-3.0","5d506e6d4040a40016bb186a","625e209c10a247530e1c6964","625eee9d64cfddb7cc5b8ece","14","28212","
        <style>
            img.small {
            max-width: 100px;
            }
            li {
            text-indent: 40px;
            }
        </style>

        <div class=""text-container text-left"">
            <p>For each picture, we’d like your impressions of the scene:</p>
            
            <hr>
                Are there <b>clear, distinct boundaries</b> between objects in the scene, or are the <b>boundaries ambiguous or unclear</b>?
                
                <li>clear, distinct boundaries: <img class=""small"" src=""assets/img/ambiguous-low.png""></li>
                <li>ambiguous or unclear boundaries: <img class=""small"" src=""assets/img/ambiguous-high.png""></li>
            <hr>
            <br>
                Are there <b>only a few different objects</b> in the scene, or is there <b>a large number</b>?
            <br><br>
            <hr>
                Are only <b>a few parts</b> of the scene <b>invisible or obscured</b>, or are <b>many parts invisible or obscured</b>?
                
                <li>a few parts invisible or obscured: <img class=""small"" src=""assets/img/invisible-low.png""></li>
                <li>many parts invisible or obscured: <img class=""small"" src=""assets/img/invisible-high.png""></li>
            <hr>
            <br>
                Does the scene look <b>organized</b> or <b>chaotic</b> to you?
            <br><br>
            <hr>
            
            <p>
                There are no right or wrong answers: we are interested in <b>your</b> impression. Note that some images might have individual buildings or faces blurred for privacy. Please ignore these when making your judgments.
            </p>
        </div>
        <br>
    ","0","","","","","","","","","","","","","","","","","","","","","","","","","","","","",""
"instructions","html-button-response","6","76404","0.0-2.0-4.0","5d506e6d4040a40016bb186a","625e209c10a247530e1c6964","625eee9d64cfddb7cc5b8ece","14","7005","
        <div class=""text-container text-left"">
            <p>Please make sure you are doing this study in an area where you can focus and complete the survey in one sitting.</p>

            <p>Don’t spend too much time on any one picture, and, again go with your gut impression!</p>
            
            <p>The study should take about 30 minutes. We’ll let you know when you’re halfway through.</p>
        </div>
            
        <h3>Ready? Click next to get started!</h3>
        <br>
    ","0","","","","","","","","","","","","","","","","","","","","","","","","","","","","",""
"trial","survey","7","115564","0.0-2.0-5.0","5d506e6d4040a40016bb186a","625e209c10a247530e1c6964","625eee9d64cfddb7cc5b8ece","14","39047","","{""P0_Q0"":null,""ambiguous"":4,""objects"":3,""invisible"":3,""chaos"":2}","","","","","","","","","","","","","","","","","[]","Nearby location of United States Postal Service (us_arb_pos_a_2)","ChIJlwkqdc6xPIgREfyzp428070","42.2697109","-83.7737698","US","ARB","ARB","POS","2019 W Stadium Blvd, Ann Arbor, MI 48103, USA","us_arb_pos_b_2","270","us_arb_pos_b_2_270"
"trial","survey","8","147219","0.0-2.0-6.0","5d506e6d4040a40016bb186a","625e209c10a247530e1c6964","625eee9d64cfddb7cc5b8ece","14","31627","","{""P0_Q0"":null,""ambiguous"":3,""objects"":4,""invisible"":3,""chaos"":2}","","","","","","","","","","","","","","","","","[]","United States Postal Service","ChIJRXiunQP0wokRdMaoXdky9Do","40.8589783","-73.9311402","US","NYC","CTR","POS","4558 Broadway, New York, NY 10040, USA","us_nyc-c_pos_a_5","90","us_nyc-c_pos_a_5_90"
"trial","survey","9","171188","0.0-2.0-7.0","5d506e6d4040a40016bb186a","625e209c10a247530e1c6964","625eee9d64cfddb7cc5b8ece","14","23946","","{""P0_Q0"":null,""ambiguous"":3,""objects"":3,""invisible"":3,""chaos"":3}","","","","","","","","","","","","","","","","","[]","Nearby location of Katsushika Higashishinkoiwa Post Office (jp_tok-p_pos_a_6)","ChIJa0TdeweGGGAR0TN6A1BsN_Y","35.7240323","139.8620652","JP","TOK","PER","POS","3-chōme-15-6 Higashishinkoiwa, Katsushika City, Tokyo 124-0023, Japan","jp_tok-p_pos_b_6","0","jp_tok-p_pos_b_6_0"
"trial","survey","10","198484","0.0-2.0-8.0","5d506e6d4040a40016bb186a","625e209c10a247530e1c6964","625eee9d64cfddb7cc5b8ece","14","27271","","{""P0_Q0"":null,""ambiguous"":4,""objects"":3,""invisible"":3,""chaos"":2}","","","","","","","","","","","","","","","","","[]","Rakuten STAY HOUSE×WILLSTYLE 八幡堀","ChIJ29I3jA95AWAR_5xuRG3klyw","35.1418554","136.0963056","JP","HIK","HIK","HTL","580-6 Tagachō, Omihachiman, Shiga 523-0821, Japan","jp_hik_htl_a_high1","270","jp_hik_htl_a_high1_270"
"trial","survey","11","222749","0.0-2.0-9.0","5d506e6d4040a40016bb186a","625e209c10a247530e1c6964","625eee9d64cfddb7cc5b8ece","14","24215","","{""P0_Q0"":null,""ambiguous"":2,""objects"":2,""invisible"":2,""chaos"":2}","","","","","","","","","","","","","","","","","[]","Oizumi Daini Elementary School","ChIJOT0Kk9nuGGARlr5-SQA1DDo","35.744542","139.573028","JP","TOK","PER","SCH","4-chōme-29-11 Minamiōizumi, Nerima City, Tokyo 178-0064, Japan","jp_tok-p_sch_a_6","90","jp_tok-p_sch_a_6_90"
"trial","survey","12","244751","0.0-2.0-10.0","5d506e6d4040a40016bb186a","625e209c10a247530e1c6964","625eee9d64cfddb7cc5b8ece","14","21968","","{""P0_Q0"":null,""ambiguous"":3,""objects"":2,""invisible"":2,""chaos"":2}","","","","","","","","","","","","","","","","","[]","United States Postal Service","ChIJ00vgwVlDwokRCNivb7JW25o","40.6153779","-73.9292541","US","NYC","PER","POS","2222 Flatbush Ave, Brooklyn, NY 11234, USA","us_nyc-p_pos_a_3","0","us_nyc-p_pos_a_3_0"
"trial","survey","13","271313","0.0-2.0-11.0","5d506e6d4040a40016bb186a","625e209c10a247530e1c6964","625eee9d64cfddb7cc5b8ece","14","26542","","{""P0_Q0"":null,""ambiguous"":3,""objects"":2,""invisible"":3,""chaos"":2}","","","","","","","","","","","","","","","","","[]","United States Postal Service","ChIJZSVRGDq7PIgRlo_a8I0Tib8","42.1718067","-83.7735227","US","ARB","ARB","POS","108 N Maple Rd, Saline, MI 48176, USA","us_arb_pos_a_1","180","us_arb_pos_a_1_180"
"trial","survey","14","291245","0.0-2.0-12.0","5d506e6d4040a40016bb186a","625e209c10a247530e1c6964","625eee9d64cfddb7cc5b8ece","14","19906","","{""P0_Q0"":null,""ambiguous"":4,""objects"":3,""invisible"":3,""chaos"":2}","","","","","","","","","","","","","","","","","[]","Nearby location of Nihonbashi Elementary School (jp_tok-c_sch_a_7)","ChIJNS-5qVqJGGARajMXSGlTOSk","35.6833699","139.7826794","JP","TOK","CTR","SCH","1-chōme-15-9 Nihonbashikakigarachō, Chuo City, Tokyo 103-0014, Japan","jp_tok-c_sch_b_7","270","jp_tok-c_sch_b_7_270"
"trial","survey","15","317032","0.0-2.0-13.0","5d506e6d4040a40016bb186a","625e209c10a247530e1c6964","625eee9d64cfddb7cc5b8ece","14","25767","","{""P0_Q0"":null,""ambiguous"":3,""objects"":2,""invisible"":3,""chaos"":2}","","","","","","","","","","","","","","","","","[]","ORCHARD STREET HOTEL","PWNYC109","40.72117","-73.98894","US","NYC","CTR","HTL","163 ORCHARD STREET, NEW YORK, NY 10002","us_nyc-c_htl_a_low1","90","us_nyc-c_htl_a_low1_90"
"trial","survey","16","340628","0.0-2.0-14.0","5d506e6d4040a40016bb186a","625e209c10a247530e1c6964","625eee9d64cfddb7cc5b8ece","14","23567","","{""P0_Q0"":null,""ambiguous"":2,""objects"":2,""invisible"":2,""chaos"":2}","","","","","","","","","","","","","","","","","[]","Nearby location of Rakuten STAY HOUSE×WILLSTYLE 八幡堀 (jp_hik_htl_a_high1)","ChIJ-fEvCXl5AWAR8xruOW8CYd0","35.1408592","136.0976484","JP","HIK","HIK","HTL","485-9 Tagachō, Omihachiman, Shiga 523-0821, Japan","jp_hik_htl_b_high1","270","jp_hik_htl_b_high1_270"
"trial","survey","17","365105","0.0-2.0-15.0","5d506e6d4040a40016bb186a","625e209c10a247530e1c6964","625eee9d64cfddb7cc5b8ece","14","24456","","{""P0_Q0"":null,""ambiguous"":3,""objects"":3,""invisible"":2,""chaos"":2}","","","","","","","","","","","","","","","","","[]","Adahi Sano Post Office","ChIJuYxTuuOPGGAREn1yJl24fbw","35.7864794","139.8411136","JP","HIK","HIK","POS","2-chōme-11-12 Sano, Adachi City, Tokyo 121-0053, Japan","jp_hik_pos_a_3","180","jp_hik_pos_a_3_180"
"trial","survey","18","388086","0.0-2.0-16.0","5d506e6d4040a40016bb186a","625e209c10a247530e1c6964","625eee9d64cfddb7cc5b8ece","14","22952","","{""P0_Q0"":null,""ambiguous"":3,""objects"":3,""invisible"":2,""chaos"":2}","","","","","","","","","","","","","","","","","[]","Nearby location of Aijitsu Elementary School (jp_tok-c_sch_a_5)","ChIJn0gJcliMGGARx62E3ARcjRI","35.6987116","139.7326211","JP","TOK","CTR","SCH","2-8 Saikumachi, Shinjuku City, Tokyo 162-0838, Japan","jp_tok-c_sch_b_5","180","jp_tok-c_sch_b_5_180"
"trial","survey","19","408894","0.0-2.0-17.0","5d506e6d4040a40016bb186a","625e209c10a247530e1c6964","625eee9d64cfddb7cc5b8ece","14","20788","","{""P0_Q0"":null,""ambiguous"":4,""objects"":2,""invisible"":2,""chaos"":2}","","","","","","","","","","","","","","","","","[]","Nearby location of United States Postal Service (us_nyc-c_pos_a_1)","ChIJb5p6MRP2wokR4nQvWgRky_4","40.8100051","-73.9519042","US","NYC","CTR","POS","2311 Frederick Douglass Blvd, New York, NY 10027, USA","us_nyc-c_pos_b_1","0","us_nyc-c_pos_b_1_0"
"trial","survey","20","433995","0.0-2.0-18.0","5d506e6d4040a40016bb186a","625e209c10a247530e1c6964","625eee9d64cfddb7cc5b8ece","14","25084","","{""P0_Q0"":null,""ambiguous"":4,""objects"":2,""invisible"":3,""chaos"":2}","","","","","","","","","","","","","","","","","[]","Minami-Ikebukuro Post Office","ChIJZ0rDTmiNGGARmRNW8DDznoU","35.7271243","139.7133376","JP","TOK","CTR","POS","2-chōme-24-1 Minamiikebukuro, Toshima City, Tokyo 171-0022, Japan","jp_tok-c_pos_a_6","270","jp_tok-c_pos_a_6_270"
"trial","survey","21","455620","0.0-2.0-19.0","5d506e6d4040a40016bb186a","625e209c10a247530e1c6964","625eee9d64cfddb7cc5b8ece","14","21605","","{""P0_Q0"":null,""ambiguous"":4,""objects"":2,""invisible"":3,""chaos"":2}","","","","","","","","","","","","","","","","","[]","Daiwa Roynet Hotel Tokyo-Osaki","HSTYOAIZ","35.61815","139.72674","JP","TOK","PER","HTL","2-1-3, OSAKI, TOKYO 141-0032","jp_tok-p_htl_a_low2","90","jp_tok-p_htl_a_low2_90"
"trial","survey","22","483697","0.0-2.0-20.0","5d506e6d4040a40016bb186a","625e209c10a247530e1c6964","625eee9d64cfddb7cc5b8ece","14","28056","","{""P0_Q0"":null,""ambiguous"":2,""objects"":3,""invisible"":2,""chaos"":2}","","","","","","","","","","","","","","","","","[]","United States Postal Service","ChIJ00vgwVlDwokRCNivb7JW25o","40.6153779","-73.9292541","US","NYC","PER","POS","2222 Flatbush Ave, Brooklyn, NY 11234, USA","us_nyc-p_pos_a_3","90","us_nyc-p_pos_a_3_90"
"trial","survey","23","507961","0.0-2.0-21.0","5d506e6d4040a40016bb186a","625e209c10a247530e1c6964","625eee9d64cfddb7cc5b8ece","14","24225","","{""P0_Q0"":null,""ambiguous"":3,""objects"":2,""invisible"":3,""chaos"":2}","","","","","","","","","","","","","","","","","[]","Jittered SV for Horace Mann Barnard Elementary (us_nyc-p_sch_a_1)","ChIJXWJvya_zwokRupFUpNOXhkc","40.8931192","-73.899225","US","NYC","PER","SCH","231 W 246th St, Bronx, NY 10471, USA","us_nyc-p_sch_a_1","90","us_nyc-p_sch_a_1_90"
"trial","survey","24","533709","0.0-2.0-22.0","5d506e6d4040a40016bb186a","625e209c10a247530e1c6964","625eee9d64cfddb7cc5b8ece","14","25726","","{""P0_Q0"":null,""ambiguous"":3,""objects"":3,""invisible"":3,""chaos"":2}","","","","","","","","","","","","","","","","","[]","Nearby location of Guidepost Montessori at Museum Mile (us_nyc-c_sch_a_7)","ChIJMU401IBZwokRBiUiZCbwkh0","40.7774782","-73.9615352","US","NYC","CTR","SCH","1070 Madison Ave, New York, NY 10028, USA","us_nyc-c_sch_b_7","0","us_nyc-c_sch_b_7_0"
"trial","survey","25","555912","0.0-2.0-23.0","5d506e6d4040a40016bb186a","625e209c10a247530e1c6964","625eee9d64cfddb7cc5b8ece","14","22184","","{""P0_Q0"":null,""ambiguous"":3,""objects"":3,""invisible"":2,""chaos"":2}","","","","","","","","","","","","","","","","","[]","P.S. 153 Adam Clayton Powell","ChIJzzGA13z2wokRATSY11DeEH8","40.826491","-73.9475211","US","NYC","CTR","SCH","1750 Amsterdam Ave, New York, NY 10031, USA","us_nyc-c_sch_a_3","270","us_nyc-c_sch_a_3_270"
"trial","survey","26","579252","0.0-2.0-24.0","5d506e6d4040a40016bb186a","625e209c10a247530e1c6964","625eee9d64cfddb7cc5b8ece","14","23317","","{""P0_Q0"":null,""ambiguous"":4,""objects"":4,""invisible"":4,""chaos"":2}","","","","","","","","","","","","","","","","","[]","William O'Shea Campus","ChIJ2WLCL4lYwokRRLWnWyx-j_M","40.7810152","-73.9779047","US","NYC","CTR","SCH","100 W 77th St, New York, NY 10024, USA","us_nyc-c_sch_a_6","90","us_nyc-c_sch_a_6_90"
"trial","survey","27","601302","0.0-2.0-25.0","5d506e6d4040a40016bb186a","625e209c10a247530e1c6964","625eee9d64cfddb7cc5b8ece","14","22017","","{""P0_Q0"":null,""ambiguous"":3,""objects"":3,""invisible"":3,""chaos"":2}","","","","","","","","","","","","","","","","","[]","Nearby location of Comfort Inn JFK Airport (us_nyc-p_htl_a_low2)","ChIJ8dO9l21nwokRghi6bJiuq5c","40.6671742","-73.806723","US","NYC","PER","HTL","133-38 135th Ave, Queens, NY 11420, USA","us_nyc-p_htl_b_low2","270","us_nyc-p_htl_b_low2_270"
"trial","survey","28","626910","0.0-2.0-26.0","5d506e6d4040a40016bb186a","625e209c10a247530e1c6964","625eee9d64cfddb7cc5b8ece","14","25575","","{""P0_Q0"":null,""ambiguous"":4,""objects"":2,""invisible"":4,""chaos"":2}","","","","","","","","","","","","","","","","","[]","Nearby location of INTERCONTINENTAL THE STRINGS (jp_tok-c_htl_a_mid2)","ChIJAb1kM0WKGGARue_1-lZ6ilo","35.6290559","139.7422638","JP","TOK","CTR","HTL","2-chōme-2-2-14 Kōnan, Minato City, Tokyo 108-0075, Japan","jp_tok-c_htl_b_mid2","180","jp_tok-c_htl_b_mid2_180"
"trial","survey","29","648103","0.0-2.0-27.0","5d506e6d4040a40016bb186a","625e209c10a247530e1c6964","625eee9d64cfddb7cc5b8ece","14","21172","","{""P0_Q0"":null,""ambiguous"":3,""objects"":3,""invisible"":3,""chaos"":2}","","","","","","","","","","","","","","","","","[]","Bronx Charter School for Excellence 3","ChIJg2kj5avzwokRaKO_rPdPfu8","40.8883786","-73.8632703","US","NYC","PER","SCH","3956 Carpenter Ave, Bronx, NY 10466, USA","us_nyc-p_sch_a_6","0","us_nyc-p_sch_a_6_0"
"trial","survey","30","669385","0.0-2.0-28.0","5d506e6d4040a40016bb186a","625e209c10a247530e1c6964","625eee9d64cfddb7cc5b8ece","14","21259","","{""P0_Q0"":null,""ambiguous"":2,""objects"":3,""invisible"":2,""chaos"":2}","","","","","","","","","","","","","","","","","[]","Nearby location of United States Postal Service (us_arb_pos_a_1)","ChIJyxaGSDe7PIgRdsmUdk5LYuo","42.1703237","-83.7718728","US","ARB","ARB","POS","450 E Michigan Ave, Saline, MI 48176, USA","us_arb_pos_b_1","270","us_arb_pos_b_1_270"
"trial","survey","31","692999","0.0-2.0-29.0","5d506e6d4040a40016bb186a","625e209c10a247530e1c6964","625eee9d64cfddb7cc5b8ece","14","23558","","{""P0_Q0"":null,""ambiguous"":3,""objects"":3,""invisible"":3,""chaos"":2}","","","","","","","","","","","","","","","","","[]","Nearby location of Jonan Daini Elementary School (jp_tok-p_sch_a_5)","ChIJ2To8y2-KGGARuI3U_BCg3Sg","35.614051","139.744792","JP","TOK","PER","SCH","2-chōme-15-6 Minamishinagawa, Shinagawa City, Tokyo 140-0004, Japan","jp_tok-p_sch_b_5","0","jp_tok-p_sch_b_5_0"
"trial","survey","32","712745","0.0-2.0-30.0","5d506e6d4040a40016bb186a","625e209c10a247530e1c6964","625eee9d64cfddb7cc5b8ece","14","19725","","{""P0_Q0"":null,""ambiguous"":3,""objects"":3,""invisible"":3,""chaos"":2}","","","","","","","","","","","","","","","","","[]","Sandy Hook CenTer","ChIJdzryqpZZwokRskdUpqxDvaI","40.7330008","-74.0005218","US","NYC","CTR","SCH","136 Waverly Pl, New York, NY 10014, USA","us_nyc-c_sch_a_4","0","us_nyc-c_sch_a_4_0"
"trial","survey","33","730047","0.0-2.0-31.0","5d506e6d4040a40016bb186a","625e209c10a247530e1c6964","625eee9d64cfddb7cc5b8ece","14","17274","","{""P0_Q0"":null,""ambiguous"":4,""objects"":3,""invisible"":3,""chaos"":2}","","","","","","","","","","","","","","","","","[]","Nearby location of 台東小学校跡 (jp_tok-c_sch_a_1)","ChIJRW4MQI-OGGARtWvlCd2h0KY","35.7243493","139.7843592","JP","TOK","CTR","SCH","Japan, 〒110-0003 Tokyo, Taito City, Negishi, 4-chōme−1−３ 安楽寺","jp_tok-c_sch_b_1","270","jp_tok-c_sch_b_1_270"
"trial","survey","34","751164","0.0-2.0-32.0","5d506e6d4040a40016bb186a","625e209c10a247530e1c6964","625eee9d64cfddb7cc5b8ece","14","21061","","{""P0_Q0"":null,""ambiguous"":4,""objects"":2,""invisible"":2,""chaos"":2}","","","","","","","","","","","","","","","","","[]","Jittered SV for Aman Tokyo (jp_tok-c_htl_a_ultra1)","ChIJVVWFvviLGGARpWS-yu8uP1k","35.6853286","139.7666855","JP","TOK","CTR","HTL","2-chōme-2-1 Ōtemachi, Chiyoda City, Tokyo 100-0004, Japan","jp_tok-c_htl_a_ultra1","0","jp_tok-c_htl_a_ultra1_0"
"trial","survey","35","769882","0.0-2.0-33.0","5d506e6d4040a40016bb186a","625e209c10a247530e1c6964","625eee9d64cfddb7cc5b8ece","14","18699","","{""P0_Q0"":null,""ambiguous"":3,""objects"":4,""invisible"":3,""chaos"":2}","","","","","","","","","","","","","","","","","[]","The Baltic House","XTNYC653","40.682","-73.985","US","NYC","PER","HTL","489 BALTIC STREET, BROOKLYN, NY 11217","us_nyc-p_htl_a_mid1","90","us_nyc-p_htl_a_mid1_90"
"trial","survey","36","788472","0.0-2.0-34.0","5d506e6d4040a40016bb186a","625e209c10a247530e1c6964","625eee9d64cfddb7cc5b8ece","14","18570","","{""P0_Q0"":null,""ambiguous"":4,""objects"":2,""invisible"":4,""chaos"":2}","","","","","","","","","","","","","","","","","[]","The Ritz-Carlton Tokyo","RZTYORZZ","35.66622","139.7315","JP","TOK","CTR","HTL","TOKYO MIDTOWN 9-7-1 AKASAKA MI, TOKYO 107-6245","jp_tok-c_htl_a_ultra2","180","jp_tok-c_htl_a_ultra2_180"
"trial","survey","37","815264","0.0-2.0-35.0","5d506e6d4040a40016bb186a","625e209c10a247530e1c6964","625eee9d64cfddb7cc5b8ece","14","26771","","{""P0_Q0"":null,""ambiguous"":4,""objects"":2,""invisible"":3,""chaos"":2}","","","","","","","","","","","","","","","","","[]","Nearby location of United States Postal Service (us_nyc-p_pos_a_2)","ChIJLSVr_e-JwokR4naG8qzZU4M","40.769638","-73.735929","US","NYC","PER","POS","252-02 Northern Blvd, Flushing, NY 11362, USA","us_nyc-p_pos_b_2","180","us_nyc-p_pos_b_2_180"
"trial","survey","38","835305","0.0-2.0-36.0","5d506e6d4040a40016bb186a","625e209c10a247530e1c6964","625eee9d64cfddb7cc5b8ece","14","20005","","{""P0_Q0"":null,""ambiguous"":4,""objects"":3,""invisible"":3,""chaos"":2}","","","","","","","","","","","","","","","","","[]","Sasazuka Elementary School","ChIJ93VkemvzGGARQtwBVOaMyuk","35.6759768","139.6693391","JP","TOK","CTR","SCH","2-chōme-8-1 Sasazuka, Shibuya City, Tokyo 151-0073, Japan","jp_tok-c_sch_a_6","180","jp_tok-c_sch_a_6_180"
"trial","survey","39","854141","0.0-2.0-37.0","5d506e6d4040a40016bb186a","625e209c10a247530e1c6964","625eee9d64cfddb7cc5b8ece","14","18818","","{""P0_Q0"":null,""ambiguous"":3,""objects"":3,""invisible"":3,""chaos"":2}","","","","","","","","","","","","","","","","","[]","Nearby location of Ann Arbor Christian School (us_arb_sch_a_2)","ChIJx979uW-tPIgRK2esjhwtDDE","42.352939","-83.7497999","US","ARB","ARB","SCH","5460 Whitmore Lake Rd, Ann Arbor, MI 48105, USA","us_arb_sch_b_2","0","us_arb_sch_b_2_0"
"trial","survey","40","869685","0.0-2.0-38.0","5d506e6d4040a40016bb186a","625e209c10a247530e1c6964","625eee9d64cfddb7cc5b8ece","14","15523","","{""P0_Q0"":null,""ambiguous"":2,""objects"":3,""invisible"":2,""chaos"":2}","","","","","","","","","","","","","","","","","[]","BASIS Independent Manhattan","ChIJcxgyLyf2wokRA7fDLLpP4Co","40.7945131","-73.9660392","US","NYC","CTR","SCH","795 Columbus Ave, New York, NY 10025, USA","us_nyc-c_sch_a_1","0","us_nyc-c_sch_a_1_0"
"trial","survey","41","890770","0.0-2.0-39.0","5d506e6d4040a40016bb186a","625e209c10a247530e1c6964","625eee9d64cfddb7cc5b8ece","14","21067","","{""P0_Q0"":null,""ambiguous"":4,""objects"":4,""invisible"":2,""chaos"":2}","","","","","","","","","","","","","","","","","[]","Nearby location of Waseda Daigaku-mae Post Office (jp_hik_pos_a_4)","ChIJ3fFikwKNGGARdbidMhgiTgs","35.7066137","139.7233789","JP","HIK","HIK","POS","508 Wasedatsurumakichō, Shinjuku City, Tokyo 162-0041, Japan","jp_hik_pos_b_4","270","jp_hik_pos_b_4_270"
"attention-check","survey","42","898848","0.0-2.0-40.0","5d506e6d4040a40016bb186a","625e209c10a247530e1c6964","625eee9d64cfddb7cc5b8ece","14","8022","","{""P0_Q0"":null,""ambiguous"":null,""objects"":null,""invisible"":null,""chaos"":null}","","","","","","","","","","","","","","","","","[]","","","","","","","","","","","",""
"half-way","html-button-response","43","914606","0.0-2.0-41.0","5d506e6d4040a40016bb186a","625e209c10a247530e1c6964","625eee9d64cfddb7cc5b8ece","14","null","
            <h3>You are now half way through the study.</h3>
            <p>Please take a quick, 15-second break before you continue.</p>
            <img src='assets/img/countdown-15.gif'>
            <p>The study will automatically advance forward after the countdown is complete. However, you may click ""Next"" to advance forward now if you wish.</p>
        ","null","","","","","","","","","","","","","","","","","","","","","","","","","","","","",""
"trial","survey","44","933818","0.0-2.0-42.0","5d506e6d4040a40016bb186a","625e209c10a247530e1c6964","625eee9d64cfddb7cc5b8ece","14","19188","","{""P0_Q0"":null,""ambiguous"":3,""objects"":2,""invisible"":2,""chaos"":2}","","","","","","","","","","","","","","","","","[]","Nearby location of Tokyo Marriott Hotel (jp_tok-p_htl_a_high1)","ChIJsyQuX16KGGARNJl4U-sZQG0","35.620812","139.7355647","JP","TOK","PER","HTL","Japan, 〒140-0001 Tokyo, Shinagawa City, Kitashinagawa, 4-chōme−6−１７ セレソ御殿山","jp_tok-p_htl_b_high1","270","jp_tok-p_htl_b_high1_270"
"trial","survey","45","959070","0.0-2.0-43.0","5d506e6d4040a40016bb186a","625e209c10a247530e1c6964","625eee9d64cfddb7cc5b8ece","14","25233","","{""P0_Q0"":null,""ambiguous"":4,""objects"":2,""invisible"":3,""chaos"":2}","","","","","","","","","","","","","","","","","[]","Jittered SV for Aman Tokyo (jp_tok-c_htl_a_ultra1)","ChIJVVWFvviLGGARpWS-yu8uP1k","35.6853286","139.7666855","JP","TOK","CTR","HTL","2-chōme-2-1 Ōtemachi, Chiyoda City, Tokyo 100-0004, Japan","jp_tok-c_htl_a_ultra1","270","jp_tok-c_htl_a_ultra1_270"
"trial","survey","46","983861","0.0-2.0-44.0","5d506e6d4040a40016bb186a","625e209c10a247530e1c6964","625eee9d64cfddb7cc5b8ece","14","24768","","{""P0_Q0"":null,""ambiguous"":2,""objects"":2,""invisible"":2,""chaos"":2}","","","","","","","","","","","","","","","","","[]","Yotsuya Station Post Office","ChIJM8cHVYqMGGARUz2wtp-skCo","35.6875819","139.7296034","JP","TOK","CTR","POS","Japan, 〒160-0004 Tokyo, Shinjuku City, Yotsuya, 1-chōme−６−１","jp_tok-c_pos_a_3","180","jp_tok-c_pos_a_3_180"
"trial","survey","47","1267636","0.0-2.0-45.0","5d506e6d4040a40016bb186a","625e209c10a247530e1c6964","625eee9d64cfddb7cc5b8ece","14","283740","","{""P0_Q0"":null,""ambiguous"":3,""objects"":2,""invisible"":3,""chaos"":2}","","","","","","","","","","","","","","","","","[]","PS 146 Anna M. Short School","ChIJtwKR6hz2wokRPs0Ro5kWXS0","40.7897123","-73.9393805","US","NYC","CTR","SCH","421 E 106th St #4896, New York, NY 10029, USA","us_nyc-c_sch_a_5","180","us_nyc-c_sch_a_5_180"
"trial","survey","48","1284768","0.0-2.0-46.0","5d506e6d4040a40016bb186a","625e209c10a247530e1c6964","625eee9d64cfddb7cc5b8ece","14","17098","","{""P0_Q0"":null,""ambiguous"":4,""objects"":2,""invisible"":2,""chaos"":2}","","","","","","","","","","","","","","","","","[]","William O'Shea Campus","ChIJ2WLCL4lYwokRRLWnWyx-j_M","40.7810152","-73.9779047","US","NYC","CTR","SCH","100 W 77th St, New York, NY 10024, USA","us_nyc-c_sch_a_6","180","us_nyc-c_sch_a_6_180"
"trial","survey","49","1311376","0.0-2.0-47.0","5d506e6d4040a40016bb186a","625e209c10a247530e1c6964","625eee9d64cfddb7cc5b8ece","14","26587","","{""P0_Q0"":null,""ambiguous"":2,""objects"":3,""invisible"":2,""chaos"":2}","","","","","","","","","","","","","","","","","[]","Nearby location of United States Postal Service (us_arb_pos_a_2)","ChIJlwkqdc6xPIgREfyzp428070","42.2697109","-83.7737698","US","ARB","ARB","POS","2019 W Stadium Blvd, Ann Arbor, MI 48103, USA","us_arb_pos_b_2","0","us_arb_pos_b_2_0"
"trial","survey","50","1330006","0.0-2.0-48.0","5d506e6d4040a40016bb186a","625e209c10a247530e1c6964","625eee9d64cfddb7cc5b8ece","14","18608","","{""P0_Q0"":null,""ambiguous"":2,""objects"":2,""invisible"":2,""chaos"":2}","","","","","","","","","","","","","","","","","[]","Nearby location of びわ湖畔リゾート 白浜荘 (jp_hik_htl_a_mid2)","ChIJR-fdOL6aAWARRx-bTY1d8b8","35.3062783","136.038326","JP","HIK","HIK","HTL","2315-3 Adogawachō Shimoogawa, Takashima, Shiga 520-1223, Japan","jp_hik_htl_b_mid2","0","jp_hik_htl_b_mid2_0"
"trial","survey","51","1352034","0.0-2.0-49.0","5d506e6d4040a40016bb186a","625e209c10a247530e1c6964","625eee9d64cfddb7cc5b8ece","14","22010","","{""P0_Q0"":null,""ambiguous"":1,""objects"":1,""invisible"":1,""chaos"":1}","","","","","","","","","","","","","","","","","[]","Multicultural Academy","ChIJKdawbZOlPIgRLE8l7DLN_lo","42.20752","-83.700335","US","ARB","ARB","SCH","5550 Platt Rd, Ann Arbor, MI 48108, USA","us_arb_sch_a_3","90","us_arb_sch_a_3_90"
"trial","survey","52","1371816","0.0-2.0-50.0","5d506e6d4040a40016bb186a","625e209c10a247530e1c6964","625eee9d64cfddb7cc5b8ece","14","19755","","{""P0_Q0"":null,""ambiguous"":3,""objects"":2,""invisible"":2,""chaos"":2}","","","","","","","","","","","","","","","","","[]","Wave Preparatory Elementary School","ChIJRdKuS69owokRVVzQsuzg6go","40.5995661","-73.7582473","US","NYC","PER","SCH","535 Briar Pl, Queens, NY 11691, USA","us_nyc-p_sch_a_4","180","us_nyc-p_sch_a_4_180"
"trial","survey","53","1387433","0.0-2.0-51.0","5d506e6d4040a40016bb186a","625e209c10a247530e1c6964","625eee9d64cfddb7cc5b8ece","14","15597","","{""P0_Q0"":null,""ambiguous"":3,""objects"":2,""invisible"":2,""chaos"":3}","","","","","","","","","","","","","","","","","[]","Nearby location of Ryōgoku Post Office (jp_tok-c_pos_a_5)","ChIJBRNSarKOGGARKk3b5BlK71s","35.696528","139.784235","JP","TOK","CTR","POS","Japan, 〒111-0053 Tokyo, Taito City, Asakusabashi, 1-chōme−2−８ 丸一ビル","jp_tok-c_pos_b_5","0","jp_tok-c_pos_b_5_0"
"trial","survey","54","1410730","0.0-2.0-52.0","5d506e6d4040a40016bb186a","625e209c10a247530e1c6964","625eee9d64cfddb7cc5b8ece","14","23277","","{""P0_Q0"":null,""ambiguous"":3,""objects"":2,""invisible"":2,""chaos"":2}","","","","","","","","","","","","","","","","","[]","Nearby location of Nerima Sakuradai Post Office (jp_tok-p_pos_a_5)","ChIJlUrhPw3tGGARYz3NEa-AcSY","35.7359141","139.6591792","JP","TOK","PER","POS","Japan, 〒176-0012 Tokyo, Nerima City, Toyotamakita, 4-chōme−12−６ 岡野マンション","jp_tok-p_pos_b_5","0","jp_tok-p_pos_b_5_0"
"trial","survey","55","1430775","0.0-2.0-53.0","5d506e6d4040a40016bb186a","625e209c10a247530e1c6964","625eee9d64cfddb7cc5b8ece","14","20026","","{""P0_Q0"":null,""ambiguous"":2,""objects"":2,""invisible"":2,""chaos"":2}","","","","","","","","","","","","","","","","","[]","Nearby location of Red Roof PLUS Ann Arbor-Univ North (us_arb_htl_a_low1)","ChIJDRKdQxqsPIgRu07gYIBr9Ds","42.3074995","-83.6914727","US","ARB","ARB","HTL","2310 Green Rd, Ann Arbor, MI 48105, USA","us_arb_htl_b_low1","270","us_arb_htl_b_low1_270"
"trial","survey","56","1451395","0.0-2.0-54.0","5d506e6d4040a40016bb186a","625e209c10a247530e1c6964","625eee9d64cfddb7cc5b8ece","14","20599","","{""P0_Q0"":null,""ambiguous"":2,""objects"":2,""invisible"":2,""chaos"":2}","","","","","","","","","","","","","","","","","[]","Multicultural Academy","ChIJKdawbZOlPIgRLE8l7DLN_lo","42.20752","-83.700335","US","ARB","ARB","SCH","5550 Platt Rd, Ann Arbor, MI 48108, USA","us_arb_sch_a_3","0","us_arb_sch_a_3_0"
"trial","survey","57","1471785","0.0-2.0-55.0","5d506e6d4040a40016bb186a","625e209c10a247530e1c6964","625eee9d64cfddb7cc5b8ece","14","20362","","{""P0_Q0"":null,""ambiguous"":4,""objects"":2,""invisible"":3,""chaos"":2}","","","","","","","","","","","","","","","","","[]","Jonan Daini Elementary School","ChIJOzDZZm6KGGARfmI0vkKc_Kw","35.6154264","139.7461583","JP","TOK","PER","SCH","3-chōme-4-5 Higashishinagawa, Shinagawa City, Tokyo 140-0002, Japan","jp_tok-p_sch_a_5","180","jp_tok-p_sch_a_5_180"
"trial","survey","58","1492034","0.0-2.0-56.0","5d506e6d4040a40016bb186a","625e209c10a247530e1c6964","625eee9d64cfddb7cc5b8ece","14","20228","","{""P0_Q0"":null,""ambiguous"":3,""objects"":3,""invisible"":3,""chaos"":3}","","","","","","","","","","","","","","","","","[]","Nearby location of Sasazuka Elementary School (jp_tok-c_sch_a_6)","ChIJcyp_VT3zGGARh4qzbdhRhms","35.6750919","139.6707803","JP","TOK","CTR","SCH","Japan, 〒151-0073 Tokyo, Shibuya City, Sasazuka, 1-chōme−52−３ ルアンビル","jp_tok-c_sch_b_6","270","jp_tok-c_sch_b_6_270"
"trial","survey","59","1509316","0.0-2.0-57.0","5d506e6d4040a40016bb186a","625e209c10a247530e1c6964","625eee9d64cfddb7cc5b8ece","14","17263","","{""P0_Q0"":null,""ambiguous"":3,""objects"":3,""invisible"":3,""chaos"":3}","","","","","","","","","","","","","","","","","[]","Hilton Garden Inn New York/Manhattan-Midtown East","GILGA964","40.75658","-73.96944","US","NYC","CTR","HTL","206 EAST 52ND STREET, NEW YORK, NY 10022","us_nyc-c_htl_a_low2","270","us_nyc-c_htl_a_low2_270"
"trial","survey","60","1528814","0.0-2.0-58.0","5d506e6d4040a40016bb186a","625e209c10a247530e1c6964","625eee9d64cfddb7cc5b8ece","14","19478","","{""P0_Q0"":null,""ambiguous"":3,""objects"":3,""invisible"":3,""chaos"":3}","","","","","","","","","","","","","","","","","[]","Nearby location of The Pearl NYC (us_nyc-c_htl_a_high1)","ChIJH25PJ-dZwokRj_-5BHZLdE0","40.7600987","-73.9843757","US","NYC","CTR","HTL","1596 Broadway, New York, NY 10019, USA","us_nyc-c_htl_b_high1","180","us_nyc-c_htl_b_high1_180"
"trial","survey","61","1553955","0.0-2.0-59.0","5d506e6d4040a40016bb186a","625e209c10a247530e1c6964","625eee9d64cfddb7cc5b8ece","14","25123","","{""P0_Q0"":null,""ambiguous"":2,""objects"":3,""invisible"":2,""chaos"":2}","","","","","","","","","","","","","","","","","[]","Nearby location of USPS Bayside Carrier Annex (us_nyc-p_pos_a_1)","ChIJj8ldGeJhwokRyuFg0UTPpzA","40.762488","-73.7649895","US","NYC","PER","POS","217-03 43rd Ave, Queens, NY 11361, USA","us_nyc-p_pos_b_1","180","us_nyc-p_pos_b_1_180"
"trial","survey","62","1571437","0.0-2.0-60.0","5d506e6d4040a40016bb186a","625e209c10a247530e1c6964","625eee9d64cfddb7cc5b8ece","14","17461","","{""P0_Q0"":null,""ambiguous"":2,""objects"":2,""invisible"":2,""chaos"":2}","","","","","","","","","","","","","","","","","[]","Ann Arbor Hills Child Development Center","ChIJe87tMeKuPIgRVFWuWyeOdBY","42.2629596","-83.7044284","US","ARB","ARB","SCH","2775 Bedford Rd, Ann Arbor, MI 48104, USA","us_arb_sch_a_1","0","us_arb_sch_a_1_0"
"trial","survey","63","1590939","0.0-2.0-61.0","5d506e6d4040a40016bb186a","625e209c10a247530e1c6964","625eee9d64cfddb7cc5b8ece","14","19485","","{""P0_Q0"":null,""ambiguous"":2,""objects"":2,""invisible"":2,""chaos"":2}","","","","","","","","","","","","","","","","","[]","Yonehara Shiritsu Yonehara Elementary School","ChIJaQYSoWQrAmARNFmF-erxUY4","35.31424","136.280753","JP","HIK","HIK","SCH","307 Irie, Maibara, Shiga 521-0003, Japan","jp_hik_sch_a_1","90","jp_hik_sch_a_1_90"
"trial","survey","64","1607951","0.0-2.0-62.0","5d506e6d4040a40016bb186a","625e209c10a247530e1c6964","625eee9d64cfddb7cc5b8ece","14","16984","","{""P0_Q0"":null,""ambiguous"":3,""objects"":3,""invisible"":2,""chaos"":2}","","","","","","","","","","","","","","","","","[]","BASIS Independent Manhattan","ChIJcxgyLyf2wokRA7fDLLpP4Co","40.7945131","-73.9660392","US","NYC","CTR","SCH","795 Columbus Ave, New York, NY 10025, USA","us_nyc-c_sch_a_1","180","us_nyc-c_sch_a_1_180"
"trial","survey","65","1623222","0.0-2.0-63.0","5d506e6d4040a40016bb186a","625e209c10a247530e1c6964","625eee9d64cfddb7cc5b8ece","14","15244","","{""P0_Q0"":null,""ambiguous"":2,""objects"":2,""invisible"":2,""chaos"":2}","","","","","","","","","","","","","","","","","[]","us_nyc-p_sch_a_5","ChIJ-7aNoRZgwokRFC2hF6Idg2E","40.7572054","-73.8229217","US","NYC","PER","SCH","14231 Franklin Ave, Queens, NY 11355, USA","us_nyc-p_sch_b_5","90","us_nyc-p_sch_b_5_90"
"trial","survey","66","1643920","0.0-2.0-64.0","5d506e6d4040a40016bb186a","625e209c10a247530e1c6964","625eee9d64cfddb7cc5b8ece","14","20671","","{""P0_Q0"":null,""ambiguous"":2,""objects"":2,""invisible"":2,""chaos"":2}","","","","","","","","","","","","","","","","","[]","The Hoxton Williamsburg","WVNYC801","40.7207","-73.95876","US","NYC","PER","HTL","97 WYTHE AVENUE, NEW YORK, NY 11249","us_nyc-p_htl_a_high2","90","us_nyc-p_htl_a_high2_90"
"trial","survey","67","1729166","0.0-2.0-65.0","5d506e6d4040a40016bb186a","625e209c10a247530e1c6964","625eee9d64cfddb7cc5b8ece","14","85221","","{""P0_Q0"":null,""ambiguous"":2,""objects"":2,""invisible"":1,""chaos"":1}","","","","","","","","","","","","","","","","","[]","Jittered SV for Nearby location of Marunouchi Center Bldg. Post Office (jp_tok-c_pos_a_8) (jp_tok-c_pos_b_8)","ChIJnUcMGviLGGAROCgXeJNX4xg","35.6853494","139.7632784","JP","TOK","CTR","POS","Otemachi Sta., 2 Chome-1-1 Ōtemachi, Chiyoda City, Tokyo 100-0004, Japan","jp_tok-c_pos_b_8","270","jp_tok-c_pos_b_8_270"
"trial","survey","68","1743637","0.0-2.0-66.0","5d506e6d4040a40016bb186a","625e209c10a247530e1c6964","625eee9d64cfddb7cc5b8ece","14","14452","","{""P0_Q0"":null,""ambiguous"":2,""objects"":2,""invisible"":2,""chaos"":2}","","","","","","","","","","","","","","","","","[]","Nearby location of Hikoneatohoteru (jp_hik_htl_a_low1)","ChIJc83wWVfUA2ARvLpBq3jM4k4","35.2381105","136.2567336","JP","HIK","HIK","HTL","Green Hill Takamiya Park, 1780 Takamiyachō, Hikone, Shiga 522-0201, Japan","jp_hik_htl_b_low1","0","jp_hik_htl_b_low1_0"
"trial","survey","69","1764333","0.0-2.0-67.0","5d506e6d4040a40016bb186a","625e209c10a247530e1c6964","625eee9d64cfddb7cc5b8ece","14","20663","","{""P0_Q0"":null,""ambiguous"":2,""objects"":2,""invisible"":2,""chaos"":1}","","","","","","","","","","","","","","","","","[]","Days Inn by Wyndham Ann Arbor","DIARB238","42.25268","-83.68165","US","ARB","ARB","HTL","2380 CARPENTER ROAD, ANN ARBOR, MI 48108","us_arb_htl_a_low2","180","us_arb_htl_a_low2_180"
"trial","survey","70","1780936","0.0-2.0-68.0","5d506e6d4040a40016bb186a","625e209c10a247530e1c6964","625eee9d64cfddb7cc5b8ece","14","16581","","{""P0_Q0"":null,""ambiguous"":3,""objects"":2,""invisible"":2,""chaos"":2}","","","","","","","","","","","","","","","","","[]","Nearby location of Toshima Minami-Nagasaki Post Office (jp_tok-c_pos_a_4)","ChIJW9I5jqnyGGAR4LJcH4_S0to","35.725497","139.6854672","JP","TOK","CTR","POS","4-chōme-29-3 Minaminagasaki, Toshima City, Tokyo 171-0052, Japan","jp_tok-c_pos_b_4","0","jp_tok-c_pos_b_4_0"
"trial","survey","71","1799938","0.0-2.0-69.0","5d506e6d4040a40016bb186a","625e209c10a247530e1c6964","625eee9d64cfddb7cc5b8ece","14","18983","","{""P0_Q0"":null,""ambiguous"":4,""objects"":3,""invisible"":2,""chaos"":3}","","","","","","","","","","","","","","","","","[]","Flexstay Inn Shinagawa","HSTYOAIW","35.62213","139.7401","JP","TOK","PER","HTL","1-22-19, KITASHINAGAWA, TOKYO 140-0001","jp_tok-p_htl_a_mid2","270","jp_tok-p_htl_a_mid2_270"
"trial","survey","72","1819926","0.0-2.0-70.0","5d506e6d4040a40016bb186a","625e209c10a247530e1c6964","625eee9d64cfddb7cc5b8ece","14","19969","","{""P0_Q0"":null,""ambiguous"":3,""objects"":3,""invisible"":3,""chaos"":2}","","","","","","","","","","","","","","","","","[]","Nearby location of 3rd Haketa Elementary School (jp_tok-p_sch_a_1)","ChIJj82HZcOPGGARdlxKpMVK0K8","35.7349985","139.787222","JP","TOK","PER","SCH","Japan, 〒116-0002 Tokyo, Arakawa City, Arakawa, 1-chōme−26−１ ＮＴＴ ビル 本館1階","jp_tok-p_sch_b_1","180","jp_tok-p_sch_b_1_180"
"trial","survey","73","1838226","0.0-2.0-71.0","5d506e6d4040a40016bb186a","625e209c10a247530e1c6964","625eee9d64cfddb7cc5b8ece","14","18269","","{""P0_Q0"":null,""ambiguous"":3,""objects"":2,""invisible"":2,""chaos"":2}","","","","","","","","","","","","","","","","","[]","Nakano Sun Cuore Post Office","ChIJcTw2u5DyGGAReXXGTvjxlhw","35.7089211","139.6647475","JP","TOK","PER","POS","Japan, 〒164-0001 Tokyo, Nakano City, Nakano, 4-chōme−3−１ 地下１階","jp_tok-p_pos_a_2","90","jp_tok-p_pos_a_2_90"
"trial","survey","74","1853011","0.0-2.0-72.0","5d506e6d4040a40016bb186a","625e209c10a247530e1c6964","625eee9d64cfddb7cc5b8ece","14","14753","","{""P0_Q0"":null,""ambiguous"":3,""objects"":2,""invisible"":2,""chaos"":2}","","","","","","","","","","","","","","","","","[]","Hotel Kaito","ChIJSw_1QTuSAWARZz9bnjVtA6Q","35.3989028","136.0315856","JP","HIK","HIK","HTL","Japan, 〒520-1631 Shiga, Takashima, Imazuchō Nakoji, 1-chōme−６−１０","jp_hik_htl_a_low2","270","jp_hik_htl_a_low2_270"
"trial","survey","75","1867650","0.0-2.0-73.0","5d506e6d4040a40016bb186a","625e209c10a247530e1c6964","625eee9d64cfddb7cc5b8ece","14","14621","","{""P0_Q0"":null,""ambiguous"":2,""objects"":2,""invisible"":2,""chaos"":2}","","","","","","","","","","","","","","","","","[]","Rakuten STAY HOUSE×WILLSTYLE 八幡堀","ChIJ29I3jA95AWAR_5xuRG3klyw","35.1418554","136.0963056","JP","HIK","HIK","HTL","580-6 Tagachō, Omihachiman, Shiga 523-0821, Japan","jp_hik_htl_a_high1","90","jp_hik_htl_a_high1_90"
"trial","survey","76","1886524","0.0-2.0-74.0","5d506e6d4040a40016bb186a","625e209c10a247530e1c6964","625eee9d64cfddb7cc5b8ece","14","18855","","{""P0_Q0"":null,""ambiguous"":1,""objects"":2,""invisible"":1,""chaos"":1}","","","","","","","","","","","","","","","","","[]","Days Inn by Wyndham Ann Arbor","DIARB238","42.25268","-83.68165","US","ARB","ARB","HTL","2380 CARPENTER ROAD, ANN ARBOR, MI 48108","us_arb_htl_a_low2","270","us_arb_htl_a_low2_270"
"trial","survey","77","1909124","0.0-2.0-75.0","5d506e6d4040a40016bb186a","625e209c10a247530e1c6964","625eee9d64cfddb7cc5b8ece","14","22585","","{""P0_Q0"":null,""ambiguous"":4,""objects"":2,""invisible"":4,""chaos"":2}","","","","","","","","","","","","","","","","","[]","Nearby location of The Ritz-Carlton Tokyo (jp_tok-c_htl_a_ultra2)","ChIJdZpNkoKLGGARPstgSDOpX5o","35.6651495","139.7330667","JP","TOK","CTR","HTL","4-chōme-3-24 Roppongi, Minato City, Tokyo 106-0032, Japan","jp_tok-c_htl_b_ultra2","270","jp_tok-c_htl_b_ultra2_270"
"trial","survey","78","1928792","0.0-2.0-76.0","5d506e6d4040a40016bb186a","625e209c10a247530e1c6964","625eee9d64cfddb7cc5b8ece","14","19641","","{""P0_Q0"":null,""ambiguous"":4,""objects"":3,""invisible"":3,""chaos"":2}","","","","","","","","","","","","","","","","","[]","Nearby location of Kasai Station Post Office (jp_hik_pos_a_1)","ChIJJ6kVju2HGGAR5jpVAdpfozs","35.6644139","139.8716517","JP","HIK","HIK","POS","3-chōme-33-14 Nakakasai, Edogawa City, Tokyo 134-0083, Japan","jp_hik_pos_b_1","270","jp_hik_pos_b_1_270"
"demographics","survey-html-form","79","1944697","0.0-2.0-77.0","5d506e6d4040a40016bb186a","625e209c10a247530e1c6964","625eee9d64cfddb7cc5b8ece","14","15901","","{""age"":""76"",""gender"":""male"",""gender-self-describe"":"""",""zipcode"":""42003""}","","","","","","","","","","","","","","","","","","","","","","","","","","","","",""
"demographics","survey","80","1952427","0.0-2.0-78.0","5d506e6d4040a40016bb186a","625e209c10a247530e1c6964","625eee9d64cfddb7cc5b8ece","14","7682","","{""P0_Q0"":null,""outsideUS"":""No"",""outsideUS_years"":""""}","","","","","","","","","","","","","","","","","[]","","","","","","","","","","","",""
"end-survey","survey-text","81","1955733","0.0-2.0-79.0","5d506e6d4040a40016bb186a","625e209c10a247530e1c6964","625eee9d64cfddb7cc5b8ece","14","3294","","{""Q0"":""""}","","","","","","","","","","","","","","","","","","","","","","","","","","","","",""
