"task","trial_type","trial_index","time_elapsed","internal_node_id","subject_id","study_id","session_id","group","rt","stimulus","response","width","height","webaudio","browser","browser_version","mobile","os","fullscreen","vsync_rate","webcam","microphone","success","timeout","failed_images","failed_audio","failed_video","accuracy","name","place_id","lat","lng","culture","loc1","loc2","loct","address","loc_id_prev","angle","loc_id"
"pavlovia-init","pavlovia","0","2046","0.0-0.0","57564c3d947a3d0007b545d6","626166b218b78fee4e9d8d4d","6261785e604ee483c583eab4","2","","","","","","","","","","","","","","","","","","","","","","","","","","","","","","","",""
"consent","html-button-response","1","10545","0.0-1.0","57564c3d947a3d0007b545d6","626166b218b78fee4e9d8d4d","6261785e604ee483c583eab4","2","8498","
        <div style=""font-size: 80%; max-width:700px"">
            <h2>Informed Consent</h2><br>
        
            <div style=""text-align: left"">
            <h3>Streetscape Perceptions</h3>
            <b>HUM00189138</b>
            <br><hr>
        
            <h4>DESCRIPTION</h4>
            <p>
                In this study, you will view Google Street View images. You will then answer questions about your impressions of the streetscapes presented in those images.
            </p><br>
        
            <h4>TIME INVOLVEMENT</h4>
            <p>Your participation will take approximately 30 minutes.</p><br>
        
            <h4>RISKS AND BENEFITS</h4>
            <p>
                The risks associated with this study are minimal. The benefits which may reasonably be expected to result from this study are none.  We cannot and do not guarantee or promise that you will receive any benefits from this study. 
            </p><br>
        
            <h4>PAYMENTS</h4>
            <p>You will be paid <b>$5.00</b> for your participation.</p><br>
        
            <h4>SUBJECT'S RIGHTS</h4>
            <p>
                If you have read this form and have decided to participate in this project, please understand your participation is voluntary and you have the right to withdraw your consent or discontinue participation at any time without penalty or loss of benefits to which you are otherwise entitled.  The alternative is not to participate.  You have the right to refuse to answer particular questions.  
            </p>
        
            <p>
                Your individual privacy will be maintained in all published and written data resulting from the study. Your responses will be kept confidential: you are given a participant code, and no one, not even the research team, can match that code with your identity. Your collected information may also be shared with other researchers as part of our dataset.
            </p><br>
        
            <h4>CONTACT INFORMATION</h4>
            <p>
                Questions: If you have any questions, concerns or complaints about this research, its procedures, risks and benefits, contact the Protocol Director, Nicholas Camp, npcamp@umich.edu, (443) 851-6783.
            </p>
        
            <p>
                If you have questions about your rights as a research participant, or wish to obtain information, ask questions or discuss any concerns about this study with someone other than the researcher(s), please contact the following:
                <br><br>
        
                University of Michigan<br>
                Health Sciences and Behavioral Sciences Institutional Review Board
                (IRB-HSBS)<br>
                2800 Plymouth Road <br>
                Building 520, Room 1169 <br>
                Ann Arbor, MI 48109-2800 <br>
                Telephone: 734-936-0933 or toll free (866) 936-0933 <br>
                Fax: 734-936-1852 <br />
                E-mail: irbhsbs@umich.edu <br>
            </p>
        
            <p>
                You can also contact the University of Michigan Compliance Hotline at 1-866-990-0111. You may also print this consent form to keep.
            </p>
            <br>
        
            <div class=""alert alert-warning""><b>
                Do you consent to participate in this study? If you consent to participate in this study, please click “Accept and continue.”
            </b></div>
            </div>
        </div>
    ","1","","","","","","","","","","","","","","","","","","","","","","","","","","","","",""
"browser-check","browser-check","2","11535","0.0-2.0-0.0","57564c3d947a3d0007b545d6","626166b218b78fee4e9d8d4d","6261785e604ee483c583eab4","2","","","","1536","714","true","chrome","100.0.4896","false","Windows 10","true","60.86","true","true","","","","","","","","","","","","","","","","","",""
"","preload","3","12375","0.0-2.0-1.0","57564c3d947a3d0007b545d6","626166b218b78fee4e9d8d4d","6261785e604ee483c583eab4","2","","","","","","","","","","","","","","","true","false","[]","[]","[]","","","","","","","","","","","","",""
"instructions","html-button-response","4","51477","0.0-2.0-2.0","57564c3d947a3d0007b545d6","626166b218b78fee4e9d8d4d","6261785e604ee483c583eab4","2","39101","
        <div class=""text-container"">
            <h1>Welcome to the study!</h1>
            
            <div class=""text-left"">
                <p>
                    In this study, we are interested in how people think about different Google Street View images. Google Street View takes pictures of streets used for Google Earth and Google Maps. You’ll see Google Street View images of different places and answer some questions about each one.
                </p>
            </div>
            
            <img src='
            https://maps.googleapis.com/maps/api/streetview?size=640x320
            &location=37.783631,-122.432766
            &heading=80
            &pitch=2
            &fov=100
            &radius=150
            &key=AIzaSyC2OxRDg6qlzZDj7j0UAD2XyE0qWokLvvs
            &source=outdoor'>
        
            <br>
        <br>
    ","0","","","","","","","","","","","","","","","","","","","","","","","","","","","","",""
"instructions","html-button-response","5","185743","0.0-2.0-3.0","57564c3d947a3d0007b545d6","626166b218b78fee4e9d8d4d","6261785e604ee483c583eab4","2","133957","
        <style>
            img.small {
            max-width: 100px;
            }
            li {
            text-indent: 40px;
            }
        </style>

        <div class=""text-container text-left"">
            <p>For each picture, we’d like your impressions of the scene:</p>
            
            <hr>
                Are there <b>clear, distinct boundaries</b> between objects in the scene, or are the <b>boundaries ambiguous or unclear</b>?
                
                <li>clear, distinct boundaries: <img class=""small"" src=""assets/img/ambiguous-low.png""></li>
                <li>ambiguous or unclear boundaries: <img class=""small"" src=""assets/img/ambiguous-high.png""></li>
            <hr>
            <br>
                Are there <b>only a few different objects</b> in the scene, or is there <b>a large number</b>?
            <br><br>
            <hr>
                Are only <b>a few parts</b> of the scene <b>invisible or obscured</b>, or are <b>many parts invisible or obscured</b>?
                
                <li>a few parts invisible or obscured: <img class=""small"" src=""assets/img/invisible-low.png""></li>
                <li>many parts invisible or obscured: <img class=""small"" src=""assets/img/invisible-high.png""></li>
            <hr>
            <br>
                Does the scene look <b>organized</b> or <b>chaotic</b> to you?
            <br><br>
            <hr>
            
            <p>
                There are no right or wrong answers: we are interested in <b>your</b> impression. Note that some images might have individual buildings or faces blurred for privacy. Please ignore these when making your judgments.
            </p>
        </div>
        <br>
    ","0","","","","","","","","","","","","","","","","","","","","","","","","","","","","",""
"instructions","html-button-response","6","194216","0.0-2.0-4.0","57564c3d947a3d0007b545d6","626166b218b78fee4e9d8d4d","6261785e604ee483c583eab4","2","8470","
        <div class=""text-container text-left"">
            <p>Please make sure you are doing this study in an area where you can focus and complete the survey in one sitting.</p>

            <p>Don’t spend too much time on any one picture, and, again go with your gut impression!</p>
            
            <p>The study should take about 30 minutes. We’ll let you know when you’re halfway through.</p>
        </div>
            
        <h3>Ready? Click next to get started!</h3>
        <br>
    ","0","","","","","","","","","","","","","","","","","","","","","","","","","","","","",""
"trial","survey","7","215157","0.0-2.0-5.0","57564c3d947a3d0007b545d6","626166b218b78fee4e9d8d4d","6261785e604ee483c583eab4","2","20901","","{""P0_Q0"":null,""ambiguous"":5,""objects"":5,""invisible"":5,""chaos"":5}","","","","","","","","","","","","","","","","","[]","Nearby location of Hotel Kaito (jp_hik_htl_a_low2)","ChIJK566KTuSAWARF4Kp9393J_4","35.3976612","136.0302169","JP","HIK","HIK","HTL","Japan, 〒520-1631 Shiga, Takashima, Imazuchō Nakoji, 2-chōme−６−３２","jp_hik_htl_b_low2","180","jp_hik_htl_b_low2_180"
"trial","survey","8","229300","0.0-2.0-6.0","57564c3d947a3d0007b545d6","626166b218b78fee4e9d8d4d","6261785e604ee483c583eab4","2","14134","","{""P0_Q0"":null,""ambiguous"":5,""objects"":5,""invisible"":5,""chaos"":5}","","","","","","","","","","","","","","","","","[]","William O'Shea Campus","ChIJ2WLCL4lYwokRRLWnWyx-j_M","40.7810152","-73.9779047","US","NYC","CTR","SCH","100 W 77th St, New York, NY 10024, USA","us_nyc-c_sch_a_6","0","us_nyc-c_sch_a_6_0"
"trial","survey","9","244082","0.0-2.0-7.0","57564c3d947a3d0007b545d6","626166b218b78fee4e9d8d4d","6261785e604ee483c583eab4","2","14774","","{""P0_Q0"":null,""ambiguous"":5,""objects"":5,""invisible"":5,""chaos"":5}","","","","","","","","","","","","","","","","","[]","Nearby location of Katsushika Higashishinkoiwa Post Office (jp_tok-p_pos_a_6)","ChIJa0TdeweGGGAR0TN6A1BsN_Y","35.7240323","139.8620652","JP","TOK","PER","POS","3-chōme-15-6 Higashishinkoiwa, Katsushika City, Tokyo 124-0023, Japan","jp_tok-p_pos_b_6","270","jp_tok-p_pos_b_6_270"
"trial","survey","10","264447","0.0-2.0-8.0","57564c3d947a3d0007b545d6","626166b218b78fee4e9d8d4d","6261785e604ee483c583eab4","2","20356","","{""P0_Q0"":null,""ambiguous"":2,""objects"":3,""invisible"":3,""chaos"":2}","","","","","","","","","","","","","","","","","[]","Nearby location of Kirihara Higashi Elementary School (jp_hik_sch_a_2)","ChIJ44W9Gy96AWARDa0LDoFiGi8","35.1236331","136.0869352","JP","HIK","HIK","SCH","1379 Tsuchidachō, Omihachiman, Shiga 523-0082, Japan","jp_hik_sch_b_2","270","jp_hik_sch_b_2_270"
"trial","survey","11","295452","0.0-2.0-9.0","57564c3d947a3d0007b545d6","626166b218b78fee4e9d8d4d","6261785e604ee483c583eab4","2","30996","","{""P0_Q0"":null,""ambiguous"":5,""objects"":5,""invisible"":5,""chaos"":5}","","","","","","","","","","","","","","","","","[]","United States Postal Service","ChIJIRvhvPqJwokRje-X_pYcWug","40.7684345","-73.7370948","US","NYC","PER","POS","25010 Northern Blvd, Queens, NY 11362, USA","us_nyc-p_pos_a_2","270","us_nyc-p_pos_a_2_270"
"trial","survey","12","305646","0.0-2.0-10.0","57564c3d947a3d0007b545d6","626166b218b78fee4e9d8d4d","6261785e604ee483c583eab4","2","10187","","{""P0_Q0"":null,""ambiguous"":5,""objects"":5,""invisible"":5,""chaos"":5}","","","","","","","","","","","","","","","","","[]","Nearby location of Hotel Kaito (jp_hik_htl_a_low2)","ChIJK566KTuSAWARF4Kp9393J_4","35.3976612","136.0302169","JP","HIK","HIK","HTL","Japan, 〒520-1631 Shiga, Takashima, Imazuchō Nakoji, 2-chōme−６−３２","jp_hik_htl_b_low2","0","jp_hik_htl_b_low2_0"
"trial","survey","13","326674","0.0-2.0-11.0","57564c3d947a3d0007b545d6","626166b218b78fee4e9d8d4d","6261785e604ee483c583eab4","2","21023","","{""P0_Q0"":null,""ambiguous"":3,""objects"":4,""invisible"":4,""chaos"":3}","","","","","","","","","","","","","","","","","[]","Nihonbashi Elementary School","ChIJdXahT1CJGGARlBMGrWteCyU","35.684732","139.781385","JP","TOK","CTR","SCH","1-chōme-1-17 Nihonbashiningyōchō, Chuo City, Tokyo 103-0013, Japan","jp_tok-c_sch_a_7","0","jp_tok-c_sch_a_7_0"
"trial","survey","14","349253","0.0-2.0-12.0","57564c3d947a3d0007b545d6","626166b218b78fee4e9d8d4d","6261785e604ee483c583eab4","2","22573","","{""P0_Q0"":null,""ambiguous"":1,""objects"":1,""invisible"":2,""chaos"":2}","","","","","","","","","","","","","","","","","[]","Aijitsu Elementary School","ChIJzR_MUXS7JhURN_tqq9sSdCs","35.699762","139.7340245","JP","TOK","CTR","SCH","26 Kitamachi, Shinjuku City, Tokyo 162-0834, Japan","jp_tok-c_sch_a_5","180","jp_tok-c_sch_a_5_180"
"trial","survey","15","393212","0.0-2.0-13.0","57564c3d947a3d0007b545d6","626166b218b78fee4e9d8d4d","6261785e604ee483c583eab4","2","43952","","{""P0_Q0"":null,""ambiguous"":2,""objects"":3,""invisible"":3,""chaos"":4}","","","","","","","","","","","","","","","","","[]","Nearby location of Adahi Sano Post Office (jp_hik_pos_a_3)","ChIJ687ZfeOPGGARr0sg29_jaNA","35.7854552","139.8422615","JP","HIK","HIK","POS","1-chōme-19-3 Sano, Adachi City, Tokyo 121-0053, Japan","jp_hik_pos_b_3","270","jp_hik_pos_b_3_270"
"trial","survey","16","405427","0.0-2.0-14.0","57564c3d947a3d0007b545d6","626166b218b78fee4e9d8d4d","6261785e604ee483c583eab4","2","12209","","{""P0_Q0"":null,""ambiguous"":1,""objects"":1,""invisible"":1,""chaos"":1}","","","","","","","","","","","","","","","","","[]","Nearby location of Kotō 3rd Elementary School (jp_hik_sch_a_3)","ChIJLZ0mLuzXA2ARkBmZe7KxZ-s","35.1317714","136.2240495","JP","HIK","HIK","SCH","2191-2 Kotakarichō, Higashiomi, Shiga 527-0125, Japan","jp_hik_sch_b_3","0","jp_hik_sch_b_3_0"
"trial","survey","17","412692","0.0-2.0-15.0","57564c3d947a3d0007b545d6","626166b218b78fee4e9d8d4d","6261785e604ee483c583eab4","2","7258","","{""P0_Q0"":null,""ambiguous"":1,""objects"":1,""invisible"":1,""chaos"":1}","","","","","","","","","","","","","","","","","[]","Nearby location of Hilton New York JFK Airport, NY (us_nyc-p_htl_a_mid2)","ChIJvcyCtx9nwokREAp7AP5NM9s","40.6672608","-73.7964601","US","NYC","PER","HTL","135-25 142nd St, Queens, NY 11436, USA","us_nyc-p_htl_b_mid2","180","us_nyc-p_htl_b_mid2_180"
"trial","survey","18","424707","0.0-2.0-16.0","57564c3d947a3d0007b545d6","626166b218b78fee4e9d8d4d","6261785e604ee483c583eab4","2","12007","","{""P0_Q0"":null,""ambiguous"":1,""objects"":1,""invisible"":1,""chaos"":1}","","","","","","","","","","","","","","","","","[]","United States Postal Service","ChIJ00vgwVlDwokRCNivb7JW25o","40.6153779","-73.9292541","US","NYC","PER","POS","2222 Flatbush Ave, Brooklyn, NY 11234, USA","us_nyc-p_pos_a_3","180","us_nyc-p_pos_a_3_180"
"trial","survey","19","440292","0.0-2.0-17.0","57564c3d947a3d0007b545d6","626166b218b78fee4e9d8d4d","6261785e604ee483c583eab4","2","15577","","{""P0_Q0"":null,""ambiguous"":3,""objects"":2,""invisible"":2,""chaos"":2}","","","","","","","","","","","","","","","","","[]","Nearby location of The Ritz-Carlton Tokyo (jp_tok-c_htl_a_ultra2)","ChIJdZpNkoKLGGARPstgSDOpX5o","35.6651495","139.7330667","JP","TOK","CTR","HTL","4-chōme-3-24 Roppongi, Minato City, Tokyo 106-0032, Japan","jp_tok-c_htl_b_ultra2","180","jp_tok-c_htl_b_ultra2_180"
"trial","survey","20","448325","0.0-2.0-18.0","57564c3d947a3d0007b545d6","626166b218b78fee4e9d8d4d","6261785e604ee483c583eab4","2","8028","","{""P0_Q0"":null,""ambiguous"":1,""objects"":1,""invisible"":1,""chaos"":1}","","","","","","","","","","","","","","","","","[]","Nearby location of Aman Tokyo (jp_tok-c_htl_a_ultra1)","ChIJ5W6CKziLGGAR73lO8PA1mRk","35.6844083","139.7640849","JP","TOK","CTR","HTL","1-chōme-3-4 Marunouchi, Chiyoda City, Tokyo 100-0005, Japan","jp_tok-c_htl_b_ultra1","90","jp_tok-c_htl_b_ultra1_90"
"trial","survey","21","459710","0.0-2.0-19.0","57564c3d947a3d0007b545d6","626166b218b78fee4e9d8d4d","6261785e604ee483c583eab4","2","11378","","{""P0_Q0"":null,""ambiguous"":1,""objects"":1,""invisible"":1,""chaos"":1}","","","","","","","","","","","","","","","","","[]","Nearby location of The Williamsburg Hotel (us_nyc-p_htl_a_high1)","ChIJH00_Y11ZwokR19006V8VF7Q","40.7203468","-73.9589785","US","NYC","PER","HTL","84 N 9th St, Brooklyn, NY 11249, USA","us_nyc-p_htl_b_high1","90","us_nyc-p_htl_b_high1_90"
"trial","survey","22","467725","0.0-2.0-20.0","57564c3d947a3d0007b545d6","626166b218b78fee4e9d8d4d","6261785e604ee483c583eab4","2","8009","","{""P0_Q0"":null,""ambiguous"":1,""objects"":1,""invisible"":1,""chaos"":1}","","","","","","","","","","","","","","","","","[]","Tsukishima 2nd Elementary School","ChIJU0n9-HyJGGARNQSXKv-kIIY","35.6602474","139.7758266","JP","TOK","CTR","SCH","1-chōme-12-2 Kachidoki, Chuo City, Tokyo 104-0054, Japan","jp_tok-c_sch_a_3","0","jp_tok-c_sch_a_3_0"
"trial","survey","23","516765","0.0-2.0-21.0","57564c3d947a3d0007b545d6","626166b218b78fee4e9d8d4d","6261785e604ee483c583eab4","2","49034","","{""P0_Q0"":null,""ambiguous"":4,""objects"":2,""invisible"":3,""chaos"":3}","","","","","","","","","","","","","","","","","[]","Nearby location of Tokyo Marriott Hotel (jp_tok-p_htl_a_high1)","ChIJsyQuX16KGGARNJl4U-sZQG0","35.620812","139.7355647","JP","TOK","PER","HTL","Japan, 〒140-0001 Tokyo, Shinagawa City, Kitashinagawa, 4-chōme−6−１７ セレソ御殿山","jp_tok-p_htl_b_high1","90","jp_tok-p_htl_b_high1_90"
"trial","survey","24","526144","0.0-2.0-22.0","57564c3d947a3d0007b545d6","626166b218b78fee4e9d8d4d","6261785e604ee483c583eab4","2","9373","","{""P0_Q0"":null,""ambiguous"":1,""objects"":1,""invisible"":1,""chaos"":1}","","","","","","","","","","","","","","","","","[]","Quality Inn and Suites Ann Arbor Hwy 23","QIARB356","42.25224","-83.68168","US","ARB","ARB","HTL","2376 CARPENTER ROAD, ANN ARBOR, MI 48018","us_arb_htl_a_mid2","90","us_arb_htl_a_mid2_90"
"trial","survey","25","535646","0.0-2.0-23.0","57564c3d947a3d0007b545d6","626166b218b78fee4e9d8d4d","6261785e604ee483c583eab4","2","9496","","{""P0_Q0"":null,""ambiguous"":1,""objects"":1,""invisible"":1,""chaos"":1}","","","","","","","","","","","","","","","","","[]","Manually Updated Nearby location of United States Postal Service (us_arb_pos_a_3)","GhIJwCSVKeYbRUARAUenU8PnVMA","42.219341","-83.618069","US","ARB","ARB","POS","1501 S Huron St, Ypsilanti, MI 48197","us_arb_pos_b_3","90","us_arb_pos_b_3_90"
"trial","survey","26","568619","0.0-2.0-24.0","57564c3d947a3d0007b545d6","626166b218b78fee4e9d8d4d","6261785e604ee483c583eab4","2","32966","","{""P0_Q0"":null,""ambiguous"":1,""objects"":1,""invisible"":1,""chaos"":1}","","","","","","","","","","","","","","","","","[]","Nearby location of United States Postal Service (us_arb_pos_a_1)","ChIJyxaGSDe7PIgRdsmUdk5LYuo","42.1703237","-83.7718728","US","ARB","ARB","POS","450 E Michigan Ave, Saline, MI 48176, USA","us_arb_pos_b_1","90","us_arb_pos_b_1_90"
"trial","survey","27","595571","0.0-2.0-25.0","57564c3d947a3d0007b545d6","626166b218b78fee4e9d8d4d","6261785e604ee483c583eab4","2","26947","","{""P0_Q0"":null,""ambiguous"":1,""objects"":1,""invisible"":1,""chaos"":1}","","","","","","","","","","","","","","","","","[]","Nearby location of Comfort Inn JFK Airport (us_nyc-p_htl_a_low2)","ChIJ8dO9l21nwokRghi6bJiuq5c","40.6671742","-73.806723","US","NYC","PER","HTL","133-38 135th Ave, Queens, NY 11420, USA","us_nyc-p_htl_b_low2","270","us_nyc-p_htl_b_low2_270"
"trial","survey","28","603561","0.0-2.0-26.0","57564c3d947a3d0007b545d6","626166b218b78fee4e9d8d4d","6261785e604ee483c583eab4","2","7982","","{""P0_Q0"":null,""ambiguous"":1,""objects"":1,""invisible"":1,""chaos"":1}","","","","","","","","","","","","","","","","","[]","Manually Updated Nearby location of Multicultural Academy (us_arb_sch_a_3)","ChIJ-d4ve5SlPIgRkuG2a85xlZo","42.206221","-83.699299","US","ARB","ARB","SCH","2866 Glen Creek Dr, Ann Arbor, MI 48108, USA","us_arb_sch_b_3","90","us_arb_sch_b_3_90"
"trial","survey","29","614920","0.0-2.0-27.0","57564c3d947a3d0007b545d6","626166b218b78fee4e9d8d4d","6261785e604ee483c583eab4","2","11351","","{""P0_Q0"":null,""ambiguous"":5,""objects"":5,""invisible"":5,""chaos"":5}","","","","","","","","","","","","","","","","","[]","The Hoxton Williamsburg","WVNYC801","40.7207","-73.95876","US","NYC","PER","HTL","97 WYTHE AVENUE, NEW YORK, NY 11249","us_nyc-p_htl_a_high2","270","us_nyc-p_htl_a_high2_270"
"trial","survey","30","625258","0.0-2.0-28.0","57564c3d947a3d0007b545d6","626166b218b78fee4e9d8d4d","6261785e604ee483c583eab4","2","10332","","{""P0_Q0"":null,""ambiguous"":1,""objects"":1,""invisible"":5,""chaos"":1}","","","","","","","","","","","","","","","","","[]","P.S. 153 Adam Clayton Powell","ChIJzzGA13z2wokRATSY11DeEH8","40.826491","-73.9475211","US","NYC","CTR","SCH","1750 Amsterdam Ave, New York, NY 10031, USA","us_nyc-c_sch_a_3","0","us_nyc-c_sch_a_3_0"
"trial","survey","31","634048","0.0-2.0-29.0","57564c3d947a3d0007b545d6","626166b218b78fee4e9d8d4d","6261785e604ee483c583eab4","2","8784","","{""P0_Q0"":null,""ambiguous"":1,""objects"":1,""invisible"":1,""chaos"":1}","","","","","","","","","","","","","","","","","[]","Nearby location of Baymont by Wyndham Chelsea (us_chl_htl_a_mid1)","ChIJPR5PbrjOPIgRniUqQCWoPWs","42.298341","-84.0291029","US","CHL","CHL","HTL","1620 Commerce Park Dr suite 100, Chelsea, MI 48118, USA","us_chl_htl_b_mid1","180","us_chl_htl_b_mid1_180"
"trial","survey","32","642170","0.0-2.0-30.0","57564c3d947a3d0007b545d6","626166b218b78fee4e9d8d4d","6261785e604ee483c583eab4","2","8115","","{""P0_Q0"":null,""ambiguous"":1,""objects"":1,""invisible"":1,""chaos"":1}","","","","","","","","","","","","","","","","","[]","Hotel Kaito","ChIJSw_1QTuSAWARZz9bnjVtA6Q","35.3989028","136.0315856","JP","HIK","HIK","HTL","Japan, 〒520-1631 Shiga, Takashima, Imazuchō Nakoji, 1-chōme−６−１０","jp_hik_htl_a_low2","90","jp_hik_htl_a_low2_90"
"trial","survey","33","654556","0.0-2.0-31.0","57564c3d947a3d0007b545d6","626166b218b78fee4e9d8d4d","6261785e604ee483c583eab4","2","12379","","{""P0_Q0"":null,""ambiguous"":5,""objects"":2,""invisible"":5,""chaos"":5}","","","","","","","","","","","","","","","","","[]","Nearby location of Higashi-Asakusa Elementary School (jp_tok-c_sch_a_8)","ChIJAytTi-2OGGARfOL1JBbMOoM","35.725672","139.7971627","JP","TOK","CTR","SCH","Japan, 〒111-0021 Tokyo, Taito City, Nihonzutsumi, 1-chōme−31−２ 平乃屋","jp_tok-c_sch_b_8","180","jp_tok-c_sch_b_8_180"
"trial","survey","34","666987","0.0-2.0-32.0","57564c3d947a3d0007b545d6","626166b218b78fee4e9d8d4d","6261785e604ee483c583eab4","2","12424","","{""P0_Q0"":null,""ambiguous"":5,""objects"":5,""invisible"":5,""chaos"":5}","","","","","","","","","","","","","","","","","[]","Setagaya Okamoto Post Office","ChIJU6mt5gf0GGARS1eqIkjSKT4","35.6261891","139.6194159","JP","TOK","PER","POS","1-chōme-30-7 Okamoto, Setagaya City, Tokyo 157-0076, Japan","jp_tok-p_pos_a_1","90","jp_tok-p_pos_a_1_90"
"trial","survey","35","683822","0.0-2.0-33.0","57564c3d947a3d0007b545d6","626166b218b78fee4e9d8d4d","6261785e604ee483c583eab4","2","16830","","{""P0_Q0"":null,""ambiguous"":1,""objects"":5,""invisible"":1,""chaos"":1}","","","","","","","","","","","","","","","","","[]","Nerima Sakuradai Post Office","ChIJazp3ghLtGGARuc0S6p6HeSM","35.7372339","139.6605353","JP","TOK","PER","POS","2-chōme-22-14 Toyotamakami, Nerima City, Tokyo 176-0011, Japan","jp_tok-p_pos_a_5","0","jp_tok-p_pos_a_5_0"
"trial","survey","36","691022","0.0-2.0-34.0","57564c3d947a3d0007b545d6","626166b218b78fee4e9d8d4d","6261785e604ee483c583eab4","2","7192","","{""P0_Q0"":null,""ambiguous"":1,""objects"":1,""invisible"":1,""chaos"":1}","","","","","","","","","","","","","","","","","[]","Nihonbashi Elementary School","ChIJdXahT1CJGGARlBMGrWteCyU","35.684732","139.781385","JP","TOK","CTR","SCH","1-chōme-1-17 Nihonbashiningyōchō, Chuo City, Tokyo 103-0013, Japan","jp_tok-c_sch_a_7","180","jp_tok-c_sch_a_7_180"
"half-way","html-button-response","37","698546","0.0-2.0-35.0","57564c3d947a3d0007b545d6","626166b218b78fee4e9d8d4d","6261785e604ee483c583eab4","2","7521","
            <h3>You are now half way through the study.</h3>
            <p>Please take a quick, 15-second break before you continue.</p>
            <img src='assets/img/countdown-15.gif'>
            <p>The study will automatically advance forward after the countdown is complete. However, you may click ""Next"" to advance forward now if you wish.</p>
        ","0","","","","","","","","","","","","","","","","","","","","","","","","","","","","",""
"attention-check","survey","38","708883","0.0-2.0-36.0","57564c3d947a3d0007b545d6","626166b218b78fee4e9d8d4d","6261785e604ee483c583eab4","2","10327","","{""P0_Q0"":null,""ambiguous"":null,""objects"":null,""invisible"":null,""chaos"":null}","","","","","","","","","","","","","","","","","[]","","","","","","","","","","","",""
"trial","survey","39","723731","0.0-2.0-37.0","57564c3d947a3d0007b545d6","626166b218b78fee4e9d8d4d","6261785e604ee483c583eab4","2","14843","","{""P0_Q0"":null,""ambiguous"":3,""objects"":2,""invisible"":3,""chaos"":3}","","","","","","","","","","","","","","","","","[]","Nearby location of Hikoneatohoteru (jp_hik_htl_a_low1)","ChIJc83wWVfUA2ARvLpBq3jM4k4","35.2381105","136.2567336","JP","HIK","HIK","HTL","Green Hill Takamiya Park, 1780 Takamiyachō, Hikone, Shiga 522-0201, Japan","jp_hik_htl_b_low1","270","jp_hik_htl_b_low1_270"
"trial","survey","40","735518","0.0-2.0-38.0","57564c3d947a3d0007b545d6","626166b218b78fee4e9d8d4d","6261785e604ee483c583eab4","2","11778","","{""P0_Q0"":null,""ambiguous"":4,""objects"":4,""invisible"":4,""chaos"":3}","","","","","","","","","","","","","","","","","[]","United States Postal Service","ChIJ2S39Rs6xPIgRFumqYMpJrTE","42.2709374","-83.7748696","US","ARB","ARB","POS","2075 W Stadium Blvd, Ann Arbor, MI 48103, USA","us_arb_pos_a_2","0","us_arb_pos_a_2_0"
"trial","survey","41","753397","0.0-2.0-39.0","57564c3d947a3d0007b545d6","626166b218b78fee4e9d8d4d","6261785e604ee483c583eab4","2","17871","","{""P0_Q0"":null,""ambiguous"":5,""objects"":5,""invisible"":5,""chaos"":5}","","","","","","","","","","","","","","","","","[]","Nearby location of United States Postal Service (us_nyc-c_pos_a_7)","ChIJjVTn2xD2wokRxjWBnF0UGVg","40.8023565","-73.9528115","US","NYC","CTR","POS","113 St Nicholas Ave, New York, NY 10026, USA","us_nyc-c_pos_b_7","0","us_nyc-c_pos_b_7_0"
"trial","survey","42","766159","0.0-2.0-40.0","57564c3d947a3d0007b545d6","626166b218b78fee4e9d8d4d","6261785e604ee483c583eab4","2","12753","","{""P0_Q0"":null,""ambiguous"":1,""objects"":5,""invisible"":1,""chaos"":1}","","","","","","","","","","","","","","","","","[]","Nearby location of Toshima Minami-Nagasaki Post Office (jp_tok-c_pos_a_4)","ChIJW9I5jqnyGGAR4LJcH4_S0to","35.725497","139.6854672","JP","TOK","CTR","POS","4-chōme-29-3 Minaminagasaki, Toshima City, Tokyo 171-0052, Japan","jp_tok-c_pos_b_4","90","jp_tok-c_pos_b_4_90"
"trial","survey","43","775425","0.0-2.0-41.0","57564c3d947a3d0007b545d6","626166b218b78fee4e9d8d4d","6261785e604ee483c583eab4","2","9259","","{""P0_Q0"":null,""ambiguous"":5,""objects"":5,""invisible"":5,""chaos"":5}","","","","","","","","","","","","","","","","","[]","Nearby location of HOTEL ALLAMANDA AOYAMA (jp_tok-c_htl_a_high1)","ChIJBeIIXpyMGGARp8F4yBa84pg","35.6704599","139.7189166","JP","TOK","CTR","HTL","2-chōme-22-14 Minamiaoyama, Minato City, Tokyo 107-0062, Japan","jp_tok-c_htl_b_high1","0","jp_tok-c_htl_b_high1_0"
"trial","survey","44","802162","0.0-2.0-42.0","57564c3d947a3d0007b545d6","626166b218b78fee4e9d8d4d","6261785e604ee483c583eab4","2","26729","","{""P0_Q0"":null,""ambiguous"":1,""objects"":1,""invisible"":1,""chaos"":1}","","","","","","","","","","","","","","","","","[]","United States Postal Service","ChIJ-z0tqtinPIgRRFOwdMC_IJo","42.2168766","-83.6200448","US","ARB","ARB","POS","1606 S Huron St, Ypsilanti, MI 48197, USA","us_arb_pos_a_3","270","us_arb_pos_a_3_270"
"trial","survey","45","810829","0.0-2.0-43.0","57564c3d947a3d0007b545d6","626166b218b78fee4e9d8d4d","6261785e604ee483c583eab4","2","8661","","{""P0_Q0"":null,""ambiguous"":5,""objects"":5,""invisible"":5,""chaos"":5}","","","","","","","","","","","","","","","","","[]","Nerima Sakuradai Post Office","ChIJazp3ghLtGGARuc0S6p6HeSM","35.7372339","139.6605353","JP","TOK","PER","POS","2-chōme-22-14 Toyotamakami, Nerima City, Tokyo 176-0011, Japan","jp_tok-p_pos_a_5","90","jp_tok-p_pos_a_5_90"
"trial","survey","46","822044","0.0-2.0-44.0","57564c3d947a3d0007b545d6","626166b218b78fee4e9d8d4d","6261785e604ee483c583eab4","2","11209","","{""P0_Q0"":null,""ambiguous"":5,""objects"":5,""invisible"":5,""chaos"":5}","","","","","","","","","","","","","","","","","[]","Nearby location of Fairfield Inn and Suites by Marriott New York Manhattan Times Square (us_nyc-c_htl_a_mid1)","ChIJt_ncpFJYwokRykJpalw_bYU","40.7575246","-73.994055","US","NYC","CTR","HTL","405 W 40th St, New York, NY 10018, USA","us_nyc-c_htl_b_mid1","270","us_nyc-c_htl_b_mid1_270"
"trial","survey","47","842883","0.0-2.0-45.0","57564c3d947a3d0007b545d6","626166b218b78fee4e9d8d4d","6261785e604ee483c583eab4","2","20833","","{""P0_Q0"":null,""ambiguous"":1,""objects"":3,""invisible"":2,""chaos"":1}","","","","","","","","","","","","","","","","","[]","United States Postal Service","ChIJRXiunQP0wokRdMaoXdky9Do","40.8589783","-73.9311402","US","NYC","CTR","POS","4558 Broadway, New York, NY 10040, USA","us_nyc-c_pos_a_5","90","us_nyc-c_pos_a_5_90"
"trial","survey","48","852250","0.0-2.0-46.0","57564c3d947a3d0007b545d6","626166b218b78fee4e9d8d4d","6261785e604ee483c583eab4","2","9361","","{""P0_Q0"":null,""ambiguous"":1,""objects"":3,""invisible"":1,""chaos"":1}","","","","","","","","","","","","","","","","","[]","Nearby location of Mitchell Elementary School (us_arb_sch_a_4)","ChIJs-axekGvPIgRBvxYNOm48Hc","42.2361096","-83.6952309","US","ARB","ARB","SCH","3318 Williamsburg Rd, Ann Arbor, MI 48108, USA","us_arb_sch_b_4","180","us_arb_sch_b_4_180"
"trial","survey","49","863689","0.0-2.0-47.0","57564c3d947a3d0007b545d6","626166b218b78fee4e9d8d4d","6261785e604ee483c583eab4","2","11431","","{""P0_Q0"":null,""ambiguous"":1,""objects"":3,""invisible"":1,""chaos"":1}","","","","","","","","","","","","","","","","","[]","Nearby location of USPS Bayside Carrier Annex (us_nyc-p_pos_a_1)","ChIJj8ldGeJhwokRyuFg0UTPpzA","40.762488","-73.7649895","US","NYC","PER","POS","217-03 43rd Ave, Queens, NY 11361, USA","us_nyc-p_pos_b_1","270","us_nyc-p_pos_b_1_270"
"trial","survey","50","872949","0.0-2.0-48.0","57564c3d947a3d0007b545d6","626166b218b78fee4e9d8d4d","6261785e604ee483c583eab4","2","9255","","{""P0_Q0"":null,""ambiguous"":1,""objects"":1,""invisible"":1,""chaos"":1}","","","","","","","","","","","","","","","","","[]","Nearby location of Minami-Ikebukuro Post Office (jp_tok-c_pos_a_6)","ChIJYSTPzWmNGGARuevXlN7s3ko","35.7261522","139.7122633","JP","TOK","CTR","POS","3-chōme-13-20 Minamiikebukuro, Toshima City, Tokyo 171-0022, Japan","jp_tok-c_pos_b_6","270","jp_tok-c_pos_b_6_270"
"trial","survey","51","884493","0.0-2.0-49.0","57564c3d947a3d0007b545d6","626166b218b78fee4e9d8d4d","6261785e604ee483c583eab4","2","11537","","{""P0_Q0"":null,""ambiguous"":5,""objects"":5,""invisible"":5,""chaos"":5}","","","","","","","","","","","","","","","","","[]","The Hoxton Williamsburg","WVNYC801","40.7207","-73.95876","US","NYC","PER","HTL","97 WYTHE AVENUE, NEW YORK, NY 11249","us_nyc-p_htl_a_high2","90","us_nyc-p_htl_a_high2_90"
"trial","survey","52","895699","0.0-2.0-50.0","57564c3d947a3d0007b545d6","626166b218b78fee4e9d8d4d","6261785e604ee483c583eab4","2","11198","","{""P0_Q0"":null,""ambiguous"":5,""objects"":5,""invisible"":5,""chaos"":5}","","","","","","","","","","","","","","","","","[]","Hotel Villa Fontaine Nihombashi-Hakozaki","HSTYOASY","35.68042","139.78604","JP","TOK","CTR","HTL","20-10, NIHOMBASHI-HAKOZAKI-CHO, TOKYO 103-0015","jp_tok-c_htl_a_low1","180","jp_tok-c_htl_a_low1_180"
"trial","survey","53","903427","0.0-2.0-51.0","57564c3d947a3d0007b545d6","626166b218b78fee4e9d8d4d","6261785e604ee483c583eab4","2","7719","","{""P0_Q0"":null,""ambiguous"":1,""objects"":1,""invisible"":1,""chaos"":1}","","","","","","","","","","","","","","","","","[]","Graduate Ann Arbor","GPARB348","42.28143","-83.74164","US","ARB","ARB","HTL","615 E HURON ST , ANN ARBOR, MI 48104","us_arb_htl_a_high1","180","us_arb_htl_a_high1_180"
"trial","survey","54","925809","0.0-2.0-52.0","57564c3d947a3d0007b545d6","626166b218b78fee4e9d8d4d","6261785e604ee483c583eab4","2","22377","","{""P0_Q0"":null,""ambiguous"":5,""objects"":5,""invisible"":5,""chaos"":5}","","","","","","","","","","","","","","","","","[]","Chelsea House Victorian Inn","ChIJ1ap5tQHMPIgRXxz9M_-mKZc","42.3181667","-84.0196694","US","CHL","CHL","HTL","118 E Middle St, Chelsea, MI 48118, USA","us_chl_htl_a_high1","90","us_chl_htl_a_high1_90"
"trial","survey","55","943970","0.0-2.0-53.0","57564c3d947a3d0007b545d6","626166b218b78fee4e9d8d4d","6261785e604ee483c583eab4","2","18155","","{""P0_Q0"":null,""ambiguous"":1,""objects"":3,""invisible"":2,""chaos"":1}","","","","","","","","","","","","","","","","","[]","HOTEL K5","DSTYOKHO","35.68271","139.77801","JP","TOK","CTR","HTL","3-5 NIHOMBASHI KABUTOCHO, TOKYO 103-0026","jp_tok-c_htl_a_mid1","0","jp_tok-c_htl_a_mid1_0"
"trial","survey","56","951605","0.0-2.0-54.0","57564c3d947a3d0007b545d6","626166b218b78fee4e9d8d4d","6261785e604ee483c583eab4","2","7629","","{""P0_Q0"":null,""ambiguous"":1,""objects"":1,""invisible"":1,""chaos"":1}","","","","","","","","","","","","","","","","","[]","Jonan Daini Elementary School","ChIJOzDZZm6KGGARfmI0vkKc_Kw","35.6154264","139.7461583","JP","TOK","PER","SCH","3-chōme-4-5 Higashishinagawa, Shinagawa City, Tokyo 140-0002, Japan","jp_tok-p_sch_a_5","0","jp_tok-p_sch_a_5_0"
"trial","survey","57","959001","0.0-2.0-55.0","57564c3d947a3d0007b545d6","626166b218b78fee4e9d8d4d","6261785e604ee483c583eab4","2","7388","","{""P0_Q0"":null,""ambiguous"":1,""objects"":3,""invisible"":1,""chaos"":1}","","","","","","","","","","","","","","","","","[]","Nearby location of South Meadows Elementary School (us_chl_sch_a_1)","ChIJFQ7Lva7OPIgR_c0d98fxzFI","42.3109393","-84.0229592","US","CHL","CHL","SCH","511 Maywood St, Chelsea, MI 48118, USA","us_chl_sch_b_1","180","us_chl_sch_b_1_180"
"trial","survey","58","970840","0.0-2.0-56.0","57564c3d947a3d0007b545d6","626166b218b78fee4e9d8d4d","6261785e604ee483c583eab4","2","11833","","{""P0_Q0"":null,""ambiguous"":5,""objects"":5,""invisible"":5,""chaos"":5}","","","","","","","","","","","","","","","","","[]","Nearby location of 長浜BGホテル (us_chl_htl_a_mid1)","ChIJ2S_MbyspAmARkndCsjafTIg","35.3930344","136.2840486","JP","TOR","TOR","HTL","222-1 Kawasakichō, Nagahama, Shiga 526-0846, Japan","jp_tor_htl_b_mid1","270","jp_tor_htl_b_mid1_270"
"trial","survey","59","979504","0.0-2.0-57.0","57564c3d947a3d0007b545d6","626166b218b78fee4e9d8d4d","6261785e604ee483c583eab4","2","8659","","{""P0_Q0"":null,""ambiguous"":1,""objects"":1,""invisible"":3,""chaos"":1}","","","","","","","","","","","","","","","","","[]","Nearby location of Shinshuku Elementary School (jp_tok-p_sch_a_2)","ChIJQemZKVlgGGARmLFMYv3EENc","35.5584586","139.7170675","JP","TOK","PER","SCH","Japan, 〒144-0053 Tokyo, Ota City, Kamatahonchō, 1-chōme−2−５ ＮＴＴ蒲田ビル","jp_tok-p_sch_b_2","90","jp_tok-p_sch_b_2_90"
"trial","survey","60","995624","0.0-2.0-58.0","57564c3d947a3d0007b545d6","626166b218b78fee4e9d8d4d","6261785e604ee483c583eab4","2","16114","","{""P0_Q0"":null,""ambiguous"":5,""objects"":3,""invisible"":3,""chaos"":2}","","","","","","","","","","","","","","","","","[]","Nearby location of Katsushika Higashishinkoiwa Post Office (jp_tok-p_pos_a_6)","ChIJa0TdeweGGGAR0TN6A1BsN_Y","35.7240323","139.8620652","JP","TOK","PER","POS","3-chōme-15-6 Higashishinkoiwa, Katsushika City, Tokyo 124-0023, Japan","jp_tok-p_pos_b_6","180","jp_tok-p_pos_b_6_180"
"trial","survey","61","1007505","0.0-2.0-59.0","57564c3d947a3d0007b545d6","626166b218b78fee4e9d8d4d","6261785e604ee483c583eab4","2","11876","","{""P0_Q0"":null,""ambiguous"":1,""objects"":4,""invisible"":1,""chaos"":1}","","","","","","","","","","","","","","","","","[]","United States Postal Service","ChIJESBBoWz2wokRc5NBjEpQTow","40.8112416","-73.9532884","US","NYC","CTR","POS","365 W 125th St Ste 2A, New York, NY 10027, USA","us_nyc-c_pos_a_1","0","us_nyc-c_pos_a_1_0"
"trial","survey","62","1015715","0.0-2.0-60.0","57564c3d947a3d0007b545d6","626166b218b78fee4e9d8d4d","6261785e604ee483c583eab4","2","8203","","{""P0_Q0"":null,""ambiguous"":5,""objects"":5,""invisible"":5,""chaos"":5}","","","","","","","","","","","","","","","","","[]","Nearby location of BASIS Independent Manhattan (us_nyc-c_sch_a_1)","ChIJ5ZYR6Sb2wokRg8Qj29B4aF4","40.7956348","-73.9670782","US","NYC","CTR","SCH","120 W 100th St, New York, NY 10025, USA","us_nyc-c_sch_b_1","180","us_nyc-c_sch_b_1_180"
"trial","survey","63","1027942","0.0-2.0-61.0","57564c3d947a3d0007b545d6","626166b218b78fee4e9d8d4d","6261785e604ee483c583eab4","2","12220","","{""P0_Q0"":null,""ambiguous"":1,""objects"":1,""invisible"":1,""chaos"":1}","","","","","","","","","","","","","","","","","[]","Katsushika City Iizuka Elementary School","ChIJXWuTk2CFGGARG2Rud6f0E18","35.7767025","139.8582864","JP","TOK","PER","SCH","1-chōme-13-1 Minamimizumoto, Katsushika City, Tokyo 125-0035, Japan","jp_tok-p_sch_a_3","270","jp_tok-p_sch_a_3_270"
"trial","survey","64","1037608","0.0-2.0-62.0","57564c3d947a3d0007b545d6","626166b218b78fee4e9d8d4d","6261785e604ee483c583eab4","2","9660","","{""P0_Q0"":null,""ambiguous"":1,""objects"":1,""invisible"":1,""chaos"":1}","","","","","","","","","","","","","","","","","[]","Nearby location of Aman Tokyo (jp_tok-c_htl_a_ultra1)","ChIJ5W6CKziLGGAR73lO8PA1mRk","35.6844083","139.7640849","JP","TOK","CTR","HTL","1-chōme-3-4 Marunouchi, Chiyoda City, Tokyo 100-0005, Japan","jp_tok-c_htl_b_ultra1","180","jp_tok-c_htl_b_ultra1_180"
"trial","survey","65","1043862","0.0-2.0-63.0","57564c3d947a3d0007b545d6","626166b218b78fee4e9d8d4d","6261785e604ee483c583eab4","2","6248","","{""P0_Q0"":null,""ambiguous"":1,""objects"":1,""invisible"":1,""chaos"":1}","","","","","","","","","","","","","","","","","[]","Manually Updated Nearby location of United States Postal Service (us_arb_pos_a_3)","GhIJwCSVKeYbRUARAUenU8PnVMA","42.219341","-83.618069","US","ARB","ARB","POS","1501 S Huron St, Ypsilanti, MI 48197","us_arb_pos_b_3","0","us_arb_pos_b_3_0"
"trial","survey","66","1056227","0.0-2.0-64.0","57564c3d947a3d0007b545d6","626166b218b78fee4e9d8d4d","6261785e604ee483c583eab4","2","12359","","{""P0_Q0"":null,""ambiguous"":1,""objects"":1,""invisible"":1,""chaos"":1}","","","","","","","","","","","","","","","","","[]","Red Roof PLUS Ann Arbor-Univ North","RFARB045","42.30672","-83.69025","US","ARB","ARB","HTL","3621 PLYMOUTH ROAD, ANN ARBOR, MI 48105","us_arb_htl_a_low1","90","us_arb_htl_a_low1_90"
"trial","survey","67","1070120","0.0-2.0-65.0","57564c3d947a3d0007b545d6","626166b218b78fee4e9d8d4d","6261785e604ee483c583eab4","2","13887","","{""P0_Q0"":null,""ambiguous"":3,""objects"":4,""invisible"":2,""chaos"":1}","","","","","","","","","","","","","","","","","[]","Nearby location of United States Postal Service (us_nyc-c_pos_a_4)","ChIJcyZXC532wokRElZ4iPS6aWo","40.8396207","-73.9374588","US","NYC","CTR","POS","2170 Amsterdam Ave, New York, NY 10032, USA","us_nyc-c_pos_b_4","0","us_nyc-c_pos_b_4_0"
"trial","survey","68","1078128","0.0-2.0-66.0","57564c3d947a3d0007b545d6","626166b218b78fee4e9d8d4d","6261785e604ee483c583eab4","2","8002","","{""P0_Q0"":null,""ambiguous"":5,""objects"":5,""invisible"":5,""chaos"":5}","","","","","","","","","","","","","","","","","[]","United States Postal Service","ChIJQ1Dpq1hYwokRhUTtnxqbRIw","40.7696441","-73.9833283","US","NYC","CTR","POS","27 W 60th St, New York, NY 10023, USA","us_nyc-c_pos_a_6","270","us_nyc-c_pos_a_6_270"
"trial","survey","69","1091915","0.0-2.0-67.0","57564c3d947a3d0007b545d6","626166b218b78fee4e9d8d4d","6261785e604ee483c583eab4","2","13776","","{""P0_Q0"":null,""ambiguous"":5,""objects"":5,""invisible"":5,""chaos"":5}","","","","","","","","","","","","","","","","","[]","Mercer Hotel","WVNYCMER","40.72603","-73.99856","US","NYC","CTR","HTL","147 MERCER STREET , NEW YORK, NY 10012","us_nyc-c_htl_a_ultra2","90","us_nyc-c_htl_a_ultra2_90"
"demographics","survey-html-form","70","1104179","0.0-2.0-68.0","57564c3d947a3d0007b545d6","626166b218b78fee4e9d8d4d","6261785e604ee483c583eab4","2","12226","","{""age"":""38"",""gender"":""female"",""gender-self-describe"":"""",""zipcode"":""23185""}","","","","","","","","","","","","","","","","","","","","","","","","","","","","",""
"demographics","survey","71","1112115","0.0-2.0-69.0","57564c3d947a3d0007b545d6","626166b218b78fee4e9d8d4d","6261785e604ee483c583eab4","2","7918","","{""P0_Q0"":null,""outsideUS"":""No"",""outsideUS_years"":""n/a""}","","","","","","","","","","","","","","","","","[]","","","","","","","","","","","",""
"end-survey","survey-text","72","1124592","0.0-2.0-70.0","57564c3d947a3d0007b545d6","626166b218b78fee4e9d8d4d","6261785e604ee483c583eab4","2","12473","","{""Q0"":""""}","","","","","","","","","","","","","","","","","","","","","","","","","","","","",""
