"task","trial_type","trial_index","time_elapsed","internal_node_id","subject_id","study_id","session_id","group","rt","stimulus","response","width","height","webaudio","browser","browser_version","mobile","os","fullscreen","vsync_rate","webcam","microphone","success","timeout","failed_images","failed_audio","failed_video","accuracy","name","place_id","lat","lng","culture","loc1","loc2","loct","address","loc_id_prev","angle","loc_id"
"pavlovia-init","pavlovia","0","4705","0.0-0.0","61585be9a9a3151fa46e9433","625e209c10a247530e1c6964","625f0dc26a2e69d8e440ea84","2","","","","","","","","","","","","","","","","","","","","","","","","","","","","","","","",""
"consent","html-button-response","1","19015","0.0-1.0","61585be9a9a3151fa46e9433","625e209c10a247530e1c6964","625f0dc26a2e69d8e440ea84","2","14299","
        <div style=""font-size: 80%; max-width:700px"">
            <h2>Informed Consent</h2><br>
        
            <div style=""text-align: left"">
            <h3>Streetscape Perceptions</h3>
            <b>HUM00189138</b>
            <br><hr>
        
            <h4>DESCRIPTION</h4>
            <p>
                In this study, you will view Google Street View images. You will then answer questions about your impressions of the streetscapes presented in those images.
            </p><br>
        
            <h4>TIME INVOLVEMENT</h4>
            <p>Your participation will take approximately 30 minutes.</p><br>
        
            <h4>RISKS AND BENEFITS</h4>
            <p>
                The risks associated with this study are minimal. The benefits which may reasonably be expected to result from this study are none.  We cannot and do not guarantee or promise that you will receive any benefits from this study. 
            </p><br>
        
            <h4>PAYMENTS</h4>
            <p>You will be paid <b>$5.00</b> for your participation.</p><br>
        
            <h4>SUBJECT'S RIGHTS</h4>
            <p>
                If you have read this form and have decided to participate in this project, please understand your participation is voluntary and you have the right to withdraw your consent or discontinue participation at any time without penalty or loss of benefits to which you are otherwise entitled.  The alternative is not to participate.  You have the right to refuse to answer particular questions.  
            </p>
        
            <p>
                Your individual privacy will be maintained in all published and written data resulting from the study. Your responses will be kept confidential: you are given a participant code, and no one, not even the research team, can match that code with your identity. Your collected information may also be shared with other researchers as part of our dataset.
            </p><br>
        
            <h4>CONTACT INFORMATION</h4>
            <p>
                Questions: If you have any questions, concerns or complaints about this research, its procedures, risks and benefits, contact the Protocol Director, Nicholas Camp, npcamp@umich.edu, (443) 851-6783.
            </p>
        
            <p>
                If you have questions about your rights as a research participant, or wish to obtain information, ask questions or discuss any concerns about this study with someone other than the researcher(s), please contact the following:
                <br><br>
        
                University of Michigan<br>
                Health Sciences and Behavioral Sciences Institutional Review Board
                (IRB-HSBS)<br>
                2800 Plymouth Road <br>
                Building 520, Room 1169 <br>
                Ann Arbor, MI 48109-2800 <br>
                Telephone: 734-936-0933 or toll free (866) 936-0933 <br>
                Fax: 734-936-1852 <br />
                E-mail: irbhsbs@umich.edu <br>
            </p>
        
            <p>
                You can also contact the University of Michigan Compliance Hotline at 1-866-990-0111. You may also print this consent form to keep.
            </p>
            <br>
        
            <div class=""alert alert-warning""><b>
                Do you consent to participate in this study? If you consent to participate in this study, please click “Accept and continue.”
            </b></div>
            </div>
        </div>
    ","1","","","","","","","","","","","","","","","","","","","","","","","","","","","","",""
"browser-check","browser-check","2","20007","0.0-2.0-0.0","61585be9a9a3151fa46e9433","625e209c10a247530e1c6964","625f0dc26a2e69d8e440ea84","2","","","","1280","595","true","firefox","98.0.0","false","Windows 10","true","61.1","true","true","","","","","","","","","","","","","","","","","",""
"","preload","3","27017","0.0-2.0-1.0","61585be9a9a3151fa46e9433","625e209c10a247530e1c6964","625f0dc26a2e69d8e440ea84","2","","","","","","","","","","","","","","","true","false","[]","[]","[]","","","","","","","","","","","","",""
"instructions","html-button-response","4","239720","0.0-2.0-2.0","61585be9a9a3151fa46e9433","625e209c10a247530e1c6964","625f0dc26a2e69d8e440ea84","2","212699","
        <div class=""text-container"">
            <h1>Welcome to the study!</h1>
            
            <div class=""text-left"">
                <p>
                    In this study, we are interested in how people think about different Google Street View images. Google Street View takes pictures of streets used for Google Earth and Google Maps. You’ll see Google Street View images of different places and answer some questions about each one.
                </p>
            </div>
            
            <img src='
            https://maps.googleapis.com/maps/api/streetview?size=640x320
            &location=37.783631,-122.432766
            &heading=80
            &pitch=2
            &fov=100
            &radius=150
            &key=AIzaSyC2OxRDg6qlzZDj7j0UAD2XyE0qWokLvvs
            &source=outdoor'>
        
            <br>
        <br>
    ","0","","","","","","","","","","","","","","","","","","","","","","","","","","","","",""
"instructions","html-button-response","5","266848","0.0-2.0-3.0","61585be9a9a3151fa46e9433","625e209c10a247530e1c6964","625f0dc26a2e69d8e440ea84","2","26822","
        <style>
            img.small {
            max-width: 100px;
            }
            li {
            text-indent: 40px;
            }
        </style>

        <div class=""text-container text-left"">
            <p>For each picture, we’d like your impressions of the scene:</p>
            
            <hr>
                Are there <b>clear, distinct boundaries</b> between objects in the scene, or are the <b>boundaries ambiguous or unclear</b>?
                
                <li>clear, distinct boundaries: <img class=""small"" src=""assets/img/ambiguous-low.png""></li>
                <li>ambiguous or unclear boundaries: <img class=""small"" src=""assets/img/ambiguous-high.png""></li>
            <hr>
            <br>
                Are there <b>only a few different objects</b> in the scene, or is there <b>a large number</b>?
            <br><br>
            <hr>
                Are only <b>a few parts</b> of the scene <b>invisible or obscured</b>, or are <b>many parts invisible or obscured</b>?
                
                <li>a few parts invisible or obscured: <img class=""small"" src=""assets/img/invisible-low.png""></li>
                <li>many parts invisible or obscured: <img class=""small"" src=""assets/img/invisible-high.png""></li>
            <hr>
            <br>
                Does the scene look <b>organized</b> or <b>chaotic</b> to you?
            <br><br>
            <hr>
            
            <p>
                There are no right or wrong answers: we are interested in <b>your</b> impression. Note that some images might have individual buildings or faces blurred for privacy. Please ignore these when making your judgments.
            </p>
        </div>
        <br>
    ","0","","","","","","","","","","","","","","","","","","","","","","","","","","","","",""
"instructions","html-button-response","6","277327","0.0-2.0-4.0","61585be9a9a3151fa46e9433","625e209c10a247530e1c6964","625f0dc26a2e69d8e440ea84","2","10477","
        <div class=""text-container text-left"">
            <p>Please make sure you are doing this study in an area where you can focus and complete the survey in one sitting.</p>

            <p>Don’t spend too much time on any one picture, and, again go with your gut impression!</p>
            
            <p>The study should take about 30 minutes. We’ll let you know when you’re halfway through.</p>
        </div>
            
        <h3>Ready? Click next to get started!</h3>
        <br>
    ","0","","","","","","","","","","","","","","","","","","","","","","","","","","","","",""
"trial","survey","7","337574","0.0-2.0-5.0","61585be9a9a3151fa46e9433","625e209c10a247530e1c6964","625f0dc26a2e69d8e440ea84","2","60169","","{""P0_Q0"":null,""ambiguous"":4,""objects"":4,""invisible"":4,""chaos"":5}","","","","","","","","","","","","","","","","","[]","Nearby location of Ann Arbor Hills Child Development Center (us_arb_sch_a_1)","ChIJayC39uGuPIgRi68_P3AKb4Y","42.2614403","-83.7036603","US","ARB","ARB","SCH","1620 Glenwood Rd, Ann Arbor, MI 48104, USA","us_arb_sch_b_1","180","us_arb_sch_b_1_180"
"trial","survey","8","383150","0.0-2.0-6.0","61585be9a9a3151fa46e9433","625e209c10a247530e1c6964","625f0dc26a2e69d8e440ea84","2","45546","","{""P0_Q0"":null,""ambiguous"":2,""objects"":2,""invisible"":2,""chaos"":3}","","","","","","","","","","","","","","","","","[]","Nearby location of United States Postal Service (us_nyc-c_pos_a_8)","ChIJEcOl7cBZwokREHeZNl9a5Q0","40.7424383","-74.007802","US","NYC","CTR","POS","60 10th Ave, New York, NY 10014, USA","us_nyc-c_pos_b_8","0","us_nyc-c_pos_b_8_0"
"trial","survey","9","395223","0.0-2.0-7.0","61585be9a9a3151fa46e9433","625e209c10a247530e1c6964","625f0dc26a2e69d8e440ea84","2","12040","","{""P0_Q0"":null,""ambiguous"":1,""objects"":1,""invisible"":1,""chaos"":2}","","","","","","","","","","","","","","","","","[]","Nearby location of Success Academy Harlem 5 (us_nyc-c_sch_a_2)","ChIJT3PK4nr2wokRoJ2P1lBcwyQ","40.8213713","-73.9455112","US","NYC","CTR","SCH","351 W 141st St, New York, NY 10030, USA","us_nyc-c_sch_b_2","180","us_nyc-c_sch_b_2_180"
"trial","survey","10","411257","0.0-2.0-8.0","61585be9a9a3151fa46e9433","625e209c10a247530e1c6964","625f0dc26a2e69d8e440ea84","2","16012","","{""P0_Q0"":null,""ambiguous"":1,""objects"":1,""invisible"":1,""chaos"":1}","","","","","","","","","","","","","","","","","[]","Nearby location of Comfort Inn (us_chl_htl_a_low1)","ChIJ7WwDQLjOPIgRZf5dwFJ3f34","42.2988455","-84.0286729","US","CHL","CHL","HTL","1600 Commerce Park Dr STE 300, Chelsea, MI 48118, USA","us_chl_htl_b_low1","0","us_chl_htl_b_low1_0"
"trial","survey","11","420429","0.0-2.0-9.0","61585be9a9a3151fa46e9433","625e209c10a247530e1c6964","625f0dc26a2e69d8e440ea84","2","9149","","{""P0_Q0"":null,""ambiguous"":1,""objects"":1,""invisible"":1,""chaos"":1}","","","","","","","","","","","","","","","","","[]","Nearby location of Jonan Daini Elementary School (jp_tok-p_sch_a_5)","ChIJ2To8y2-KGGARuI3U_BCg3Sg","35.614051","139.744792","JP","TOK","PER","SCH","2-chōme-15-6 Minamishinagawa, Shinagawa City, Tokyo 140-0004, Japan","jp_tok-p_sch_b_5","180","jp_tok-p_sch_b_5_180"
"trial","survey","12","435763","0.0-2.0-10.0","61585be9a9a3151fa46e9433","625e209c10a247530e1c6964","625f0dc26a2e69d8e440ea84","2","15313","","{""P0_Q0"":null,""ambiguous"":1,""objects"":1,""invisible"":1,""chaos"":1}","","","","","","","","","","","","","","","","","[]","Red Roof PLUS Ann Arbor-Univ North","RFARB045","42.30672","-83.69025","US","ARB","ARB","HTL","3621 PLYMOUTH ROAD, ANN ARBOR, MI 48105","us_arb_htl_a_low1","180","us_arb_htl_a_low1_180"
"trial","survey","13","443195","0.0-2.0-11.0","61585be9a9a3151fa46e9433","625e209c10a247530e1c6964","625f0dc26a2e69d8e440ea84","2","7412","","{""P0_Q0"":null,""ambiguous"":3,""objects"":3,""invisible"":3,""chaos"":3}","","","","","","","","","","","","","","","","","[]","Nearby location of Adachi Asahicho Post Office (jp_tok-p_pos_a_4)","ChIJhXM9R1KOGGAR7zoOSZK_VIU","35.7480131","139.8100604","JP","TOK","PER","POS","Japan, 〒120-0026 Tokyo, Adachi City, Senjuasahichō, 22−９ コーポ山田","jp_tok-p_pos_b_4","270","jp_tok-p_pos_b_4_270"
"trial","survey","14","449788","0.0-2.0-12.0","61585be9a9a3151fa46e9433","625e209c10a247530e1c6964","625f0dc26a2e69d8e440ea84","2","6573","","{""P0_Q0"":null,""ambiguous"":1,""objects"":1,""invisible"":1,""chaos"":1}","","","","","","","","","","","","","","","","","[]","Bell Tower Hotel","SCARB398","42.27929","-83.73974","US","ARB","ARB","HTL","300 S THAYER ST, ANN ARBOR, MI 48104","us_arb_htl_a_high2","180","us_arb_htl_a_high2_180"
"trial","survey","15","458243","0.0-2.0-13.0","61585be9a9a3151fa46e9433","625e209c10a247530e1c6964","625f0dc26a2e69d8e440ea84","2","8437","","{""P0_Q0"":null,""ambiguous"":2,""objects"":1,""invisible"":2,""chaos"":2}","","","","","","","","","","","","","","","","","[]","Kasai Station Post Office","ChIJY2FCCu2HGGARFTMPVij0n94","35.6656728","139.8727342","JP","HIK","HIK","POS","3-chōme-29-19 Nakakasai, Edogawa City, Tokyo 134-0083, Japan","jp_hik_pos_a_1","0","jp_hik_pos_a_1_0"
"trial","survey","16","508063","0.0-2.0-14.0","61585be9a9a3151fa46e9433","625e209c10a247530e1c6964","625f0dc26a2e69d8e440ea84","2","49802","","{""P0_Q0"":null,""ambiguous"":1,""objects"":1,""invisible"":1,""chaos"":2}","","","","","","","","","","","","","","","","","[]","Tyler school","ChIJt-5KfXv1wokRq4WnokUwQ44","40.8513114","-73.8564072","US","NYC","PER","SCH","1916 Hone Ave, Bronx, NY 10461, USA","us_nyc-p_sch_a_3","0","us_nyc-p_sch_a_3_0"
"trial","survey","17","518317","0.0-2.0-15.0","61585be9a9a3151fa46e9433","625e209c10a247530e1c6964","625f0dc26a2e69d8e440ea84","2","10233","","{""P0_Q0"":null,""ambiguous"":2,""objects"":2,""invisible"":2,""chaos"":2}","","","","","","","","","","","","","","","","","[]","Nearby location of Waseda Daigaku-mae Post Office (jp_hik_pos_a_4)","ChIJ3fFikwKNGGARdbidMhgiTgs","35.7066137","139.7233789","JP","HIK","HIK","POS","508 Wasedatsurumakichō, Shinjuku City, Tokyo 162-0041, Japan","jp_hik_pos_b_4","180","jp_hik_pos_b_4_180"
"trial","survey","18","532412","0.0-2.0-16.0","61585be9a9a3151fa46e9433","625e209c10a247530e1c6964","625f0dc26a2e69d8e440ea84","2","14077","","{""P0_Q0"":null,""ambiguous"":1,""objects"":1,""invisible"":1,""chaos"":1}","","","","","","","","","","","","","","","","","[]","Nearby location of Hotel Route-Inn Nagahama Inter (us_chl_htl_a_low1)","ChIJ64OtwtAuAmARNDquDmxOjLw","35.3955527","136.2935564","JP","TOR","TOR","HTL","66 Yamashinachō, Nagahama, Shiga 526-0847, Japan","jp_tor_htl_b_low1","180","jp_tor_htl_b_low1_180"
"trial","survey","19","541868","0.0-2.0-17.0","61585be9a9a3151fa46e9433","625e209c10a247530e1c6964","625f0dc26a2e69d8e440ea84","2","9438","","{""P0_Q0"":null,""ambiguous"":3,""objects"":3,""invisible"":3,""chaos"":3}","","","","","","","","","","","","","","","","","[]","Nearby location of Days Inn by Wyndham Ann Arbor (us_arb_htl_a_low2)","ChIJMyKc2S2vPIgRmaoMJQDyUQ0","42.251289","-83.682438","US","ARB","ARB","HTL","2489 Gross Rd, Ann Arbor, MI 48108, USA","us_arb_htl_b_low2","180","us_arb_htl_b_low2_180"
"trial","survey","20","551771","0.0-2.0-18.0","61585be9a9a3151fa46e9433","625e209c10a247530e1c6964","625f0dc26a2e69d8e440ea84","2","9884","","{""P0_Q0"":null,""ambiguous"":2,""objects"":1,""invisible"":2,""chaos"":2}","","","","","","","","","","","","","","","","","[]","Jittered SV for Horace Mann Barnard Elementary (us_nyc-p_sch_a_1)","ChIJXWJvya_zwokRupFUpNOXhkc","40.8931192","-73.899225","US","NYC","PER","SCH","231 W 246th St, Bronx, NY 10471, USA","us_nyc-p_sch_a_1","270","us_nyc-p_sch_a_1_270"
"trial","survey","21","561312","0.0-2.0-19.0","61585be9a9a3151fa46e9433","625e209c10a247530e1c6964","625f0dc26a2e69d8e440ea84","2","9521","","{""P0_Q0"":null,""ambiguous"":3,""objects"":2,""invisible"":2,""chaos"":2}","","","","","","","","","","","","","","","","","[]","The Westin Tokyo","WITYOTOK","35.64174","139.71551","JP","TOK","PER","HTL","1 4 1 MITA MEGURO KU, TOKYO 1538580","jp_tok-p_htl_a_high2","90","jp_tok-p_htl_a_high2_90"
"trial","survey","22","604081","0.0-2.0-20.0","61585be9a9a3151fa46e9433","625e209c10a247530e1c6964","625f0dc26a2e69d8e440ea84","2","42725","","{""P0_Q0"":null,""ambiguous"":1,""objects"":1,""invisible"":2,""chaos"":1}","","","","","","","","","","","","","","","","","[]","United States Postal Service","ChIJIRvhvPqJwokRje-X_pYcWug","40.7684345","-73.7370948","US","NYC","PER","POS","25010 Northern Blvd, Queens, NY 11362, USA","us_nyc-p_pos_a_2","90","us_nyc-p_pos_a_2_90"
"trial","survey","23","620958","0.0-2.0-21.0","61585be9a9a3151fa46e9433","625e209c10a247530e1c6964","625f0dc26a2e69d8e440ea84","2","16849","","{""P0_Q0"":null,""ambiguous"":3,""objects"":3,""invisible"":3,""chaos"":3}","","","","","","","","","","","","","","","","","[]","Kotō 3rd Elementary School","ChIJyWBTvO3XA2ARubFCKa9mR4A","35.130888","136.225113","JP","HIK","HIK","SCH","340 Kotakarichō, Higashiomi, Shiga 527-0125, Japan","jp_hik_sch_a_3","180","jp_hik_sch_a_3_180"
"trial","survey","24","630120","0.0-2.0-22.0","61585be9a9a3151fa46e9433","625e209c10a247530e1c6964","625f0dc26a2e69d8e440ea84","2","9106","","{""P0_Q0"":null,""ambiguous"":1,""objects"":1,""invisible"":2,""chaos"":2}","","","","","","","","","","","","","","","","","[]","Kakezuka Elementary School","ChIJLYvCVhSLGGARQZ0PUiBKWkg","35.6443992","139.714528","JP","TOK","CTR","SCH","4-chōme-21-10 Ebisu, Shibuya City, Tokyo 150-0013, Japan","jp_tok-c_sch_a_4","90","jp_tok-c_sch_a_4_90"
"trial","survey","25","637213","0.0-2.0-23.0","61585be9a9a3151fa46e9433","625e209c10a247530e1c6964","625f0dc26a2e69d8e440ea84","2","7063","","{""P0_Q0"":null,""ambiguous"":null,""objects"":null,""invisible"":null,""chaos"":null}","","","","","","","","","","","","","","","","","[]","Bronx Charter School for Excellence 3","ChIJg2kj5avzwokRaKO_rPdPfu8","40.8883786","-73.8632703","US","NYC","PER","SCH","3956 Carpenter Ave, Bronx, NY 10466, USA","us_nyc-p_sch_a_6","90","us_nyc-p_sch_a_6_90"
"trial","survey","26","645445","0.0-2.0-24.0","61585be9a9a3151fa46e9433","625e209c10a247530e1c6964","625f0dc26a2e69d8e440ea84","2","8209","","{""P0_Q0"":null,""ambiguous"":2,""objects"":1,""invisible"":2,""chaos"":2}","","","","","","","","","","","","","","","","","[]","Comfort Inn","ChIJ-4dsD7jOPIgR_03DSz1SKuQ","42.2976226","-84.0277709","US","CHL","CHL","HTL","1645 Commerce Park Dr, Chelsea, MI 48118, USA","us_chl_htl_a_low1","180","us_chl_htl_a_low1_180"
"trial","survey","27","654197","0.0-2.0-25.0","61585be9a9a3151fa46e9433","625e209c10a247530e1c6964","625f0dc26a2e69d8e440ea84","2","8728","","{""P0_Q0"":null,""ambiguous"":1,""objects"":2,""invisible"":1,""chaos"":1}","","","","","","","","","","","","","","","","","[]","United States Postal Service","ChIJj65Q2Jz2wokR_LoJ8_MV6lI","40.8386238","-73.9389823","US","NYC","CTR","POS","511 W 165th St, New York, NY 10032, USA","us_nyc-c_pos_a_4","180","us_nyc-c_pos_a_4_180"
"trial","survey","28","667860","0.0-2.0-26.0","61585be9a9a3151fa46e9433","625e209c10a247530e1c6964","625f0dc26a2e69d8e440ea84","2","13644","","{""P0_Q0"":null,""ambiguous"":null,""objects"":null,""invisible"":null,""chaos"":null}","","","","","","","","","","","","","","","","","[]","Nearby location of Minami-Ikebukuro Post Office (jp_tok-c_pos_a_6)","ChIJYSTPzWmNGGARuevXlN7s3ko","35.7261522","139.7122633","JP","TOK","CTR","POS","3-chōme-13-20 Minamiikebukuro, Toshima City, Tokyo 171-0022, Japan","jp_tok-c_pos_b_6","270","jp_tok-c_pos_b_6_270"
"trial","survey","29","672497","0.0-2.0-27.0","61585be9a9a3151fa46e9433","625e209c10a247530e1c6964","625f0dc26a2e69d8e440ea84","2","4610","","{""P0_Q0"":null,""ambiguous"":null,""objects"":null,""invisible"":null,""chaos"":null}","","","","","","","","","","","","","","","","","[]","Nearby location of Multicultural Academy (us_arb_sch_a_3)","ChIJ-d4ve5SlPIgRkuG2a85xlZo","42.2058484","-83.701771","US","ARB","ARB","SCH","2866 Glen Creek Dr, Ann Arbor, MI 48108, USA","us_arb_sch_b_3","270","us_arb_sch_b_3_270"
"trial","survey","30","676127","0.0-2.0-28.0","61585be9a9a3151fa46e9433","625e209c10a247530e1c6964","625f0dc26a2e69d8e440ea84","2","3612","","{""P0_Q0"":null,""ambiguous"":null,""objects"":null,""invisible"":null,""chaos"":null}","","","","","","","","","","","","","","","","","[]","Nearby location of Nihonbashi Elementary School (jp_tok-c_sch_a_7)","ChIJNS-5qVqJGGARajMXSGlTOSk","35.6833699","139.7826794","JP","TOK","CTR","SCH","1-chōme-15-9 Nihonbashikakigarachō, Chuo City, Tokyo 103-0014, Japan","jp_tok-c_sch_b_7","180","jp_tok-c_sch_b_7_180"
"trial","survey","31","683169","0.0-2.0-29.0","61585be9a9a3151fa46e9433","625e209c10a247530e1c6964","625f0dc26a2e69d8e440ea84","2","7024","","{""P0_Q0"":null,""ambiguous"":1,""objects"":2,""invisible"":1,""chaos"":1}","","","","","","","","","","","","","","","","","[]","THOMPSON CENTRAL PARK - NEW YORK","HYNYCPAH","40.76418","-73.97855","US","NYC","CTR","HTL","119 WEST 56 STREET, NEW YORK, NY 10019","us_nyc-c_htl_a_high2","180","us_nyc-c_htl_a_high2_180"
"trial","survey","32","691729","0.0-2.0-30.0","61585be9a9a3151fa46e9433","625e209c10a247530e1c6964","625f0dc26a2e69d8e440ea84","2","8511","","{""P0_Q0"":null,""ambiguous"":2,""objects"":3,""invisible"":2,""chaos"":2}","","","","","","","","","","","","","","","","","[]","Nearby location of Shinshuku Elementary School (jp_tok-p_sch_a_2)","ChIJQemZKVlgGGARmLFMYv3EENc","35.5584586","139.7170675","JP","TOK","PER","SCH","Japan, 〒144-0053 Tokyo, Ota City, Kamatahonchō, 1-chōme−2−５ ＮＴＴ蒲田ビル","jp_tok-p_sch_b_2","270","jp_tok-p_sch_b_2_270"
"trial","survey","33","713352","0.0-2.0-31.0","61585be9a9a3151fa46e9433","625e209c10a247530e1c6964","625f0dc26a2e69d8e440ea84","2","21597","","{""P0_Q0"":null,""ambiguous"":1,""objects"":1,""invisible"":2,""chaos"":1}","","","","","","","","","","","","","","","","","[]","South Meadows Elementary School","ChIJQaIiMqnOPIgRKzWLjS6IoXg","42.3121005","-84.0238583","US","CHL","CHL","SCH","335 Pierce St, Chelsea, MI 48118, USA","us_chl_sch_a_1","180","us_chl_sch_a_1_180"
"trial","survey","34","719907","0.0-2.0-32.0","61585be9a9a3151fa46e9433","625e209c10a247530e1c6964","625f0dc26a2e69d8e440ea84","2","6523","","{""P0_Q0"":null,""ambiguous"":null,""objects"":null,""invisible"":null,""chaos"":null}","","","","","","","","","","","","","","","","","[]","Yonehara Shiritsu Yonehara Elementary School","ChIJaQYSoWQrAmARNFmF-erxUY4","35.31424","136.280753","JP","HIK","HIK","SCH","307 Irie, Maibara, Shiga 521-0003, Japan","jp_hik_sch_a_1","0","jp_hik_sch_a_1_0"
"trial","survey","35","731092","0.0-2.0-33.0","61585be9a9a3151fa46e9433","625e209c10a247530e1c6964","625f0dc26a2e69d8e440ea84","2","11164","","{""P0_Q0"":null,""ambiguous"":2,""objects"":1,""invisible"":1,""chaos"":1}","","","","","","","","","","","","","","","","","[]","Graduate Ann Arbor","GPARB348","42.28143","-83.74164","US","ARB","ARB","HTL","615 E HURON ST , ANN ARBOR, MI 48104","us_arb_htl_a_high1","90","us_arb_htl_a_high1_90"
"trial","survey","36","734689","0.0-2.0-34.0","61585be9a9a3151fa46e9433","625e209c10a247530e1c6964","625f0dc26a2e69d8e440ea84","2","3577","","{""P0_Q0"":null,""ambiguous"":null,""objects"":null,""invisible"":null,""chaos"":null}","","","","","","","","","","","","","","","","","[]","Nearby location of Sakata Elementary School (jp_hik_sch_a_4)","ChIJBzK5RHYsAmARdmisGXiOTX0","35.3390583","136.2876793","JP","HIK","HIK","SCH","528 Ukano, Maibara, Shiga 521-0062, Japan","jp_hik_sch_b_4","0","jp_hik_sch_b_4_0"
"trial","survey","37","737880","0.0-2.0-35.0","61585be9a9a3151fa46e9433","625e209c10a247530e1c6964","625f0dc26a2e69d8e440ea84","2","3174","","{""P0_Q0"":null,""ambiguous"":null,""objects"":null,""invisible"":null,""chaos"":null}","","","","","","","","","","","","","","","","","[]","Nearby location of 3rd Haketa Elementary School (jp_tok-p_sch_a_1)","ChIJj82HZcOPGGARdlxKpMVK0K8","35.7349985","139.787222","JP","TOK","PER","SCH","Japan, 〒116-0002 Tokyo, Arakawa City, Arakawa, 1-chōme−26−１ ＮＴＴ ビル 本館1階","jp_tok-p_sch_b_1","0","jp_tok-p_sch_b_1_0"
"trial","survey","38","777752","0.0-2.0-36.0","61585be9a9a3151fa46e9433","625e209c10a247530e1c6964","625f0dc26a2e69d8e440ea84","2","39850","","{""P0_Q0"":null,""ambiguous"":3,""objects"":3,""invisible"":3,""chaos"":3}","","","","","","","","","","","","","","","","","[]","Nearby location of United States Postal Service (us_nyc-p_pos_a_2)","ChIJLSVr_e-JwokR4naG8qzZU4M","40.769638","-73.735929","US","NYC","PER","POS","252-02 Northern Blvd, Flushing, NY 11362, USA","us_nyc-p_pos_b_2","0","us_nyc-p_pos_b_2_0"
"trial","survey","39","786331","0.0-2.0-37.0","61585be9a9a3151fa46e9433","625e209c10a247530e1c6964","625f0dc26a2e69d8e440ea84","2","8537","","{""P0_Q0"":null,""ambiguous"":1,""objects"":2,""invisible"":1,""chaos"":1}","","","","","","","","","","","","","","","","","[]","Nearby location of United States Postal Service (us_nyc-c_pos_a_6)","ChIJ63f0hz9ZwokRTruThu3Ng6s","40.7682731","-73.9822808","US","NYC","CTR","POS","15 Columbus Cir, New York, NY 10019, USA","us_nyc-c_pos_b_6","90","us_nyc-c_pos_b_6_90"
"trial","survey","40","833999","0.0-2.0-38.0","61585be9a9a3151fa46e9433","625e209c10a247530e1c6964","625f0dc26a2e69d8e440ea84","2","47643","","{""P0_Q0"":null,""ambiguous"":2,""objects"":2,""invisible"":2,""chaos"":1}","","","","","","","","","","","","","","","","","[]","Nearby location of Aman Tokyo (jp_tok-c_htl_a_ultra1)","ChIJ5W6CKziLGGAR73lO8PA1mRk","35.6844083","139.7640849","JP","TOK","CTR","HTL","1-chōme-3-4 Marunouchi, Chiyoda City, Tokyo 100-0005, Japan","jp_tok-c_htl_b_ultra1","270","jp_tok-c_htl_b_ultra1_270"
"trial","survey","41","865177","0.0-2.0-39.0","61585be9a9a3151fa46e9433","625e209c10a247530e1c6964","625f0dc26a2e69d8e440ea84","2","31131","","{""P0_Q0"":null,""ambiguous"":1,""objects"":2,""invisible"":1,""chaos"":1}","","","","","","","","","","","","","","","","","[]","Nearby location of Red Roof PLUS Ann Arbor-Univ North (us_arb_htl_a_low1)","ChIJDRKdQxqsPIgRu07gYIBr9Ds","42.3074995","-83.6914727","US","ARB","ARB","HTL","2310 Green Rd, Ann Arbor, MI 48105, USA","us_arb_htl_b_low1","180","us_arb_htl_b_low1_180"
"attention-check","survey","42","875427","0.0-2.0-40.0","61585be9a9a3151fa46e9433","625e209c10a247530e1c6964","625f0dc26a2e69d8e440ea84","2","10222","","{""P0_Q0"":null,""ambiguous"":null,""objects"":null,""invisible"":null,""chaos"":null}","","","","","","","","","","","","","","","","","[]","","","","","","","","","","","",""
"half-way","html-button-response","43","891191","0.0-2.0-41.0","61585be9a9a3151fa46e9433","625e209c10a247530e1c6964","625f0dc26a2e69d8e440ea84","2","null","
            <h3>You are now half way through the study.</h3>
            <p>Please take a quick, 15-second break before you continue.</p>
            <img src='assets/img/countdown-15.gif'>
            <p>The study will automatically advance forward after the countdown is complete. However, you may click ""Next"" to advance forward now if you wish.</p>
        ","null","","","","","","","","","","","","","","","","","","","","","","","","","","","","",""
"trial","survey","44","895709","0.0-2.0-42.0","61585be9a9a3151fa46e9433","625e209c10a247530e1c6964","625f0dc26a2e69d8e440ea84","2","4465","","{""P0_Q0"":null,""ambiguous"":null,""objects"":null,""invisible"":null,""chaos"":null}","","","","","","","","","","","","","","","","","[]","Ryōgoku Post Office","ChIJ-792HbOOGGARe1sZkDax64U","35.6954419","139.7857167","JP","TOK","CTR","POS","2-chōme-27-12 Higashinihonbashi, Chuo City, Tokyo 103-0004, Japan","jp_tok-c_pos_a_5","0","jp_tok-c_pos_a_5_0"
"trial","survey","45","902854","0.0-2.0-43.0","61585be9a9a3151fa46e9433","625e209c10a247530e1c6964","625f0dc26a2e69d8e440ea84","2","7119","","{""P0_Q0"":null,""ambiguous"":1,""objects"":2,""invisible"":2,""chaos"":1}","","","","","","","","","","","","","","","","","[]","長浜BGホテル","ChIJybhHhispAmARj0lscxsbskI","35.391991","136.282838","JP","TOR","TOR","HTL","300 Kawasakichō, Nagahama, Shiga 526-0846, Japan","jp_tor_htl_a_mid1","0","jp_tor_htl_a_mid1_0"
"trial","survey","46","910317","0.0-2.0-44.0","61585be9a9a3151fa46e9433","625e209c10a247530e1c6964","625f0dc26a2e69d8e440ea84","2","7428","","{""P0_Q0"":null,""ambiguous"":1,""objects"":2,""invisible"":2,""chaos"":1}","","","","","","","","","","","","","","","","","[]","Nearby location of Kakezuka Elementary School (jp_tok-c_sch_a_4)","ChIJZ3Y9uRWLGGAR3VkcUPtDdr0","35.6430912","139.71302","JP","TOK","CTR","SCH","4 Chome-20 Ebisu, Shibuya City, Tokyo 150-0013, Japan","jp_tok-c_sch_b_4","0","jp_tok-c_sch_b_4_0"
"trial","survey","47","913675","0.0-2.0-45.0","61585be9a9a3151fa46e9433","625e209c10a247530e1c6964","625f0dc26a2e69d8e440ea84","2","3338","","{""P0_Q0"":null,""ambiguous"":null,""objects"":null,""invisible"":null,""chaos"":null}","","","","","","","","","","","","","","","","","[]","The Ritz-Carlton Tokyo","RZTYORZZ","35.66622","139.7315","JP","TOK","CTR","HTL","TOKYO MIDTOWN 9-7-1 AKASAKA MI, TOKYO 107-6245","jp_tok-c_htl_a_ultra2","90","jp_tok-c_htl_a_ultra2_90"
"trial","survey","48","920741","0.0-2.0-46.0","61585be9a9a3151fa46e9433","625e209c10a247530e1c6964","625f0dc26a2e69d8e440ea84","2","7047","","{""P0_Q0"":null,""ambiguous"":1,""objects"":2,""invisible"":2,""chaos"":2}","","","","","","","","","","","","","","","","","[]","Nearby location of USPS Bayside Carrier Annex (us_nyc-p_pos_a_1)","ChIJj8ldGeJhwokRyuFg0UTPpzA","40.762488","-73.7649895","US","NYC","PER","POS","217-03 43rd Ave, Queens, NY 11361, USA","us_nyc-p_pos_b_1","0","us_nyc-p_pos_b_1_0"
"trial","survey","49","928645","0.0-2.0-47.0","61585be9a9a3151fa46e9433","625e209c10a247530e1c6964","625f0dc26a2e69d8e440ea84","2","7886","","{""P0_Q0"":null,""ambiguous"":1,""objects"":1,""invisible"":1,""chaos"":2}","","","","","","","","","","","","","","","","","[]","TownePlace Suites by Marriott Ann Arbor","TOARBTPT","42.23796","-83.74932","US","ARB","ARB","HTL","1301 BRIARWOOD CIRCLE DR, ANN ARBOR, MI 48108","us_arb_htl_a_mid1","0","us_arb_htl_a_mid1_0"
"trial","survey","50","935401","0.0-2.0-48.0","61585be9a9a3151fa46e9433","625e209c10a247530e1c6964","625f0dc26a2e69d8e440ea84","2","6735","","{""P0_Q0"":null,""ambiguous"":null,""objects"":null,""invisible"":null,""chaos"":null}","","","","","","","","","","","","","","","","","[]","Nearby location of レジーナリゾートびわ湖長浜 (jp_hik_htl_a_high2)","ChIJJclVFRspAmARIuM3ZJ4DJj4","35.3795647","136.2582185","JP","HIK","HIK","HTL","1-6-2 Kanebōchō, Nagahama, Shiga 526-0068, Japan","jp_hik_htl_b_high2","0","jp_hik_htl_b_high2_0"
"trial","survey","51","939253","0.0-2.0-49.0","61585be9a9a3151fa46e9433","625e209c10a247530e1c6964","625f0dc26a2e69d8e440ea84","2","3835","","{""P0_Q0"":null,""ambiguous"":null,""objects"":null,""invisible"":null,""chaos"":null}","","","","","","","","","","","","","","","","","[]","Nearby location of United States Postal Service (us_arb_pos_a_4)","ChIJR4RkkESuPIgRZJrbYhGLI8k","42.2762108","-83.7323861","US","ARB","ARB","POS","1315 Washtenaw Ave, Ann Arbor, MI 48104, USA","us_arb_pos_b_4","0","us_arb_pos_b_4_0"
"trial","survey","52","997321","0.0-2.0-50.0","61585be9a9a3151fa46e9433","625e209c10a247530e1c6964","625f0dc26a2e69d8e440ea84","2","58027","","{""P0_Q0"":null,""ambiguous"":1,""objects"":1,""invisible"":2,""chaos"":1}","","","","","","","","","","","","","","","","","[]","Nearby location of Katsushika Higashishinkoiwa Post Office (jp_tok-p_pos_a_6)","ChIJa0TdeweGGGAR0TN6A1BsN_Y","35.7240323","139.8620652","JP","TOK","PER","POS","3-chōme-15-6 Higashishinkoiwa, Katsushika City, Tokyo 124-0023, Japan","jp_tok-p_pos_b_6","180","jp_tok-p_pos_b_6_180"
"trial","survey","53","1000769","0.0-2.0-51.0","61585be9a9a3151fa46e9433","625e209c10a247530e1c6964","625f0dc26a2e69d8e440ea84","2","3398","","{""P0_Q0"":null,""ambiguous"":null,""objects"":null,""invisible"":null,""chaos"":null}","","","","","","","","","","","","","","","","","[]","Mukaihara Elementary School","ChIJr51ciUjtGGARi9CcLnWMRwg","35.7416333","139.6818636","JP","TOK","PER","SCH","2-chōme-34-1 Mukaihara, Itabashi City, Tokyo 173-0036, Japan","jp_tok-p_sch_a_4","0","jp_tok-p_sch_a_4_0"
"trial","survey","54","1007287","0.0-2.0-52.0","61585be9a9a3151fa46e9433","625e209c10a247530e1c6964","625f0dc26a2e69d8e440ea84","2","6491","","{""P0_Q0"":null,""ambiguous"":null,""objects"":null,""invisible"":null,""chaos"":null}","","","","","","","","","","","","","","","","","[]","Nakano Shirasagi Post Office","ChIJxY70cpHtGGARm_OCTi5pxck","35.719125","139.6361439","JP","TOK","PER","POS","2-chōme-35-12 Shirasagi, Nakano City, Tokyo 165-0035, Japan","jp_tok-p_pos_a_3","180","jp_tok-p_pos_a_3_180"
"trial","survey","55","1012506","0.0-2.0-53.0","61585be9a9a3151fa46e9433","625e209c10a247530e1c6964","625f0dc26a2e69d8e440ea84","2","5165","","{""P0_Q0"":null,""ambiguous"":null,""objects"":null,""invisible"":null,""chaos"":null}","","","","","","","","","","","","","","","","","[]","Nearby location of Mukaihara Elementary School (jp_tok-p_sch_a_4)","ChIJVRTxz0jtGGAR3d5pAzj-FQQ","35.7402285","139.6828032","JP","TOK","PER","SCH","2-chōme-7-6 Mukaihara, Itabashi City, Tokyo 173-0036, Japan","jp_tok-p_sch_b_4","270","jp_tok-p_sch_b_4_270"
"trial","survey","56","1020543","0.0-2.0-54.0","61585be9a9a3151fa46e9433","625e209c10a247530e1c6964","625f0dc26a2e69d8e440ea84","2","8011","","{""P0_Q0"":null,""ambiguous"":1,""objects"":2,""invisible"":2,""chaos"":1}","","","","","","","","","","","","","","","","","[]","Katsushika City Iizuka Elementary School","ChIJXWuTk2CFGGARG2Rud6f0E18","35.7767025","139.8582864","JP","TOK","PER","SCH","1-chōme-13-1 Minamimizumoto, Katsushika City, Tokyo 125-0035, Japan","jp_tok-p_sch_a_3","270","jp_tok-p_sch_a_3_270"
"trial","survey","57","1024451","0.0-2.0-55.0","61585be9a9a3151fa46e9433","625e209c10a247530e1c6964","625f0dc26a2e69d8e440ea84","2","3883","","{""P0_Q0"":null,""ambiguous"":null,""objects"":null,""invisible"":null,""chaos"":null}","","","","","","","","","","","","","","","","","[]","Nearby location of Daiwa Roynet Hotel Tokyo-Osaki (jp_tok-p_htl_a_low2)","ChIJw8m7kPSKGGAREUfz_puYZs4","35.6168084","139.7277241","JP","TOK","PER","HTL","2-chōme-9-4 Ōsaki, Shinagawa City, Tokyo 141-0032, Japan","jp_tok-p_htl_b_low2","90","jp_tok-p_htl_b_low2_90"
"trial","survey","58","1031764","0.0-2.0-56.0","61585be9a9a3151fa46e9433","625e209c10a247530e1c6964","625f0dc26a2e69d8e440ea84","2","7290","","{""P0_Q0"":null,""ambiguous"":1,""objects"":2,""invisible"":1,""chaos"":2}","","","","","","","","","","","","","","","","","[]","Aijitsu Elementary School","ChIJzR_MUXS7JhURN_tqq9sSdCs","35.699762","139.7340245","JP","TOK","CTR","SCH","26 Kitamachi, Shinjuku City, Tokyo 162-0834, Japan","jp_tok-c_sch_a_5","270","jp_tok-c_sch_a_5_270"
"trial","survey","59","1035763","0.0-2.0-57.0","61585be9a9a3151fa46e9433","625e209c10a247530e1c6964","625f0dc26a2e69d8e440ea84","2","3978","","{""P0_Q0"":null,""ambiguous"":null,""objects"":null,""invisible"":null,""chaos"":null}","","","","","","","","","","","","","","","","","[]","Nearby location of BASIS Independent Manhattan (us_nyc-c_sch_a_1)","ChIJ5ZYR6Sb2wokRg8Qj29B4aF4","40.7956348","-73.9670782","US","NYC","CTR","SCH","120 W 100th St, New York, NY 10025, USA","us_nyc-c_sch_b_1","180","us_nyc-c_sch_b_1_180"
"trial","survey","60","1046293","0.0-2.0-58.0","61585be9a9a3151fa46e9433","625e209c10a247530e1c6964","625f0dc26a2e69d8e440ea84","2","10511","","{""P0_Q0"":null,""ambiguous"":1,""objects"":2,""invisible"":2,""chaos"":2}","","","","","","","","","","","","","","","","","[]","Nearby location of Kanponoyado Hikone (jp_hik_htl_a_mid1)","ChIJ52LxtyYrAmARRzLfR851uZY","35.2879027","136.2510942","JP","HIK","HIK","HTL","1090 Matsubarachō, Hikone, Shiga 522-0002, Japan","jp_hik_htl_b_mid1","270","jp_hik_htl_b_mid1_270"
"trial","survey","61","1049042","0.0-2.0-59.0","61585be9a9a3151fa46e9433","625e209c10a247530e1c6964","625f0dc26a2e69d8e440ea84","2","2730","","{""P0_Q0"":null,""ambiguous"":null,""objects"":null,""invisible"":null,""chaos"":null}","","","","","","","","","","","","","","","","","[]","Nearby location of United States Postal Service (us_nyc-c_pos_a_8)","ChIJEcOl7cBZwokREHeZNl9a5Q0","40.7424383","-74.007802","US","NYC","CTR","POS","60 10th Ave, New York, NY 10014, USA","us_nyc-c_pos_b_8","90","us_nyc-c_pos_b_8_90"
"trial","survey","62","1051672","0.0-2.0-60.0","61585be9a9a3151fa46e9433","625e209c10a247530e1c6964","625f0dc26a2e69d8e440ea84","2","2611","","{""P0_Q0"":null,""ambiguous"":null,""objects"":null,""invisible"":null,""chaos"":null}","","","","","","","","","","","","","","","","","[]","United States Postal Service","ChIJ-z0tqtinPIgRRFOwdMC_IJo","42.2168766","-83.6200448","US","ARB","ARB","POS","1606 S Huron St, Ypsilanti, MI 48197, USA","us_arb_pos_a_3","180","us_arb_pos_a_3_180"
"trial","survey","63","1055311","0.0-2.0-61.0","61585be9a9a3151fa46e9433","625e209c10a247530e1c6964","625f0dc26a2e69d8e440ea84","2","3621","","{""P0_Q0"":null,""ambiguous"":null,""objects"":null,""invisible"":null,""chaos"":null}","","","","","","","","","","","","","","","","","[]","Shinshuku Elementary School","ChIJM1VHO19gGGARYHbYkz0tS8E","35.5572368","139.7158925","JP","TOK","PER","SCH","1-chōme-5-1 Kamatahonchō, Ota City, Tokyo 144-0053, Japan","jp_tok-p_sch_a_2","180","jp_tok-p_sch_a_2_180"
"trial","survey","64","1062307","0.0-2.0-62.0","61585be9a9a3151fa46e9433","625e209c10a247530e1c6964","625f0dc26a2e69d8e440ea84","2","6979","","{""P0_Q0"":null,""ambiguous"":1,""objects"":2,""invisible"":1,""chaos"":2}","","","","","","","","","","","","","","","","","[]","Nearby location of United States Postal Service (us_nyc-c_pos_a_7)","ChIJjVTn2xD2wokRxjWBnF0UGVg","40.8023565","-73.9528115","US","NYC","CTR","POS","113 St Nicholas Ave, New York, NY 10026, USA","us_nyc-c_pos_b_7","90","us_nyc-c_pos_b_7_90"
"trial","survey","65","1066538","0.0-2.0-63.0","61585be9a9a3151fa46e9433","625e209c10a247530e1c6964","625f0dc26a2e69d8e440ea84","2","4212","","{""P0_Q0"":null,""ambiguous"":null,""objects"":null,""invisible"":null,""chaos"":null}","","","","","","","","","","","","","","","","","[]","Nearby location of Kasai Station Post Office (jp_hik_pos_a_1)","ChIJJ6kVju2HGGAR5jpVAdpfozs","35.6644139","139.8716517","JP","HIK","HIK","POS","3-chōme-33-14 Nakakasai, Edogawa City, Tokyo 134-0083, Japan","jp_hik_pos_b_1","180","jp_hik_pos_b_1_180"
"trial","survey","66","1081455","0.0-2.0-64.0","61585be9a9a3151fa46e9433","625e209c10a247530e1c6964","625f0dc26a2e69d8e440ea84","2","14882","","{""P0_Q0"":null,""ambiguous"":1,""objects"":2,""invisible"":1,""chaos"":1}","","","","","","","","","","","","","","","","","[]","レジーナリゾートびわ湖長浜","ChIJJ5e4VxopAmAR65mu8Uxdxg0","35.3785745","136.2594856","JP","HIK","HIK","HTL","4-22 Kōenchō, Nagahama, Shiga 526-0065, Japan","jp_hik_htl_a_high2","180","jp_hik_htl_a_high2_180"
"trial","survey","67","1089817","0.0-2.0-65.0","61585be9a9a3151fa46e9433","625e209c10a247530e1c6964","625f0dc26a2e69d8e440ea84","2","8321","","{""P0_Q0"":null,""ambiguous"":2,""objects"":2,""invisible"":2,""chaos"":2}","","","","","","","","","","","","","","","","","[]","Quality Inn and Suites Ann Arbor Hwy 23","QIARB356","42.25224","-83.68168","US","ARB","ARB","HTL","2376 CARPENTER ROAD, ANN ARBOR, MI 48018","us_arb_htl_a_mid2","0","us_arb_htl_a_mid2_0"
"trial","survey","68","1101295","0.0-2.0-66.0","61585be9a9a3151fa46e9433","625e209c10a247530e1c6964","625f0dc26a2e69d8e440ea84","2","11449","","{""P0_Q0"":null,""ambiguous"":2,""objects"":1,""invisible"":2,""chaos"":2}","","","","","","","","","","","","","","","","","[]","United States Postal Service","ChIJQ1Dpq1hYwokRhUTtnxqbRIw","40.7696441","-73.9833283","US","NYC","CTR","POS","27 W 60th St, New York, NY 10023, USA","us_nyc-c_pos_a_6","90","us_nyc-c_pos_a_6_90"
"trial","survey","69","1111982","0.0-2.0-67.0","61585be9a9a3151fa46e9433","625e209c10a247530e1c6964","625f0dc26a2e69d8e440ea84","2","10665","","{""P0_Q0"":null,""ambiguous"":1,""objects"":2,""invisible"":2,""chaos"":2}","","","","","","","","","","","","","","","","","[]","Success Academy Harlem 5","ChIJLXaSYHr2wokROx6Mq1FzC9A","40.820192","-73.9444568","US","NYC","CTR","SCH","301 W 140th St, New York, NY 10030, USA","us_nyc-c_sch_a_2","270","us_nyc-c_sch_a_2_270"
"trial","survey","70","1120245","0.0-2.0-68.0","61585be9a9a3151fa46e9433","625e209c10a247530e1c6964","625f0dc26a2e69d8e440ea84","2","8243","","{""P0_Q0"":null,""ambiguous"":5,""objects"":5,""invisible"":5,""chaos"":5}","","","","","","","","","","","","","","","","","[]","Nakano Shirasagi Post Office","ChIJxY70cpHtGGARm_OCTi5pxck","35.719125","139.6361439","JP","TOK","PER","POS","2-chōme-35-12 Shirasagi, Nakano City, Tokyo 165-0035, Japan","jp_tok-p_pos_a_3","270","jp_tok-p_pos_a_3_270"
"trial","survey","71","1128875","0.0-2.0-69.0","61585be9a9a3151fa46e9433","625e209c10a247530e1c6964","625f0dc26a2e69d8e440ea84","2","8610","","{""P0_Q0"":null,""ambiguous"":2,""objects"":2,""invisible"":1,""chaos"":1}","","","","","","","","","","","","","","","","","[]","Tokyo Marriott Hotel","MCTYOMCM","35.62207","139.73696","JP","TOK","PER","HTL","4-7-36 KITASHINAGAWA SHINAGAWA, TOKYO 140-0001","jp_tok-p_htl_a_high1","270","jp_tok-p_htl_a_high1_270"
"trial","survey","72","1133546","0.0-2.0-70.0","61585be9a9a3151fa46e9433","625e209c10a247530e1c6964","625f0dc26a2e69d8e440ea84","2","4652","","{""P0_Q0"":null,""ambiguous"":null,""objects"":null,""invisible"":null,""chaos"":null}","","","","","","","","","","","","","","","","","[]","P.S. 153 Adam Clayton Powell","ChIJzzGA13z2wokRATSY11DeEH8","40.826491","-73.9475211","US","NYC","CTR","SCH","1750 Amsterdam Ave, New York, NY 10031, USA","us_nyc-c_sch_a_3","180","us_nyc-c_sch_a_3_180"
"trial","survey","73","1141768","0.0-2.0-71.0","61585be9a9a3151fa46e9433","625e209c10a247530e1c6964","625f0dc26a2e69d8e440ea84","2","8179","","{""P0_Q0"":null,""ambiguous"":2,""objects"":2,""invisible"":2,""chaos"":2}","","","","","","","","","","","","","","","","","[]","Waseda Daigaku-mae Post Office","ChIJT2M2MgONGGARQWhBX_HTPFY","35.7080144","139.7220286","JP","HIK","HIK","POS","Japan, 〒162-0041 東京都新宿区早稲田鶴巻町５３３","jp_hik_pos_a_4","270","jp_hik_pos_a_4_270"
"trial","survey","74","1146377","0.0-2.0-72.0","61585be9a9a3151fa46e9433","625e209c10a247530e1c6964","625f0dc26a2e69d8e440ea84","2","4568","","{""P0_Q0"":null,""ambiguous"":null,""objects"":null,""invisible"":null,""chaos"":null}","","","","","","","","","","","","","","","","","[]","Nearby location of Tyler school (us_nyc-p_sch_a_3)","ChIJ_YUu76b0wokR2szNWwZJrq8","40.85244","-73.8576424","US","NYC","PER","SCH","1038 Neill Ave, Bronx, NY 10461, USA","us_nyc-p_sch_b_3","90","us_nyc-p_sch_b_3_90"
"trial","survey","75","1149805","0.0-2.0-73.0","61585be9a9a3151fa46e9433","625e209c10a247530e1c6964","625f0dc26a2e69d8e440ea84","2","3400","","{""P0_Q0"":null,""ambiguous"":null,""objects"":null,""invisible"":null,""chaos"":null}","","","","","","","","","","","","","","","","","[]","Nearby location of United States Postal Service (us_arb_pos_a_4)","ChIJR4RkkESuPIgRZJrbYhGLI8k","42.2762108","-83.7323861","US","ARB","ARB","POS","1315 Washtenaw Ave, Ann Arbor, MI 48104, USA","us_arb_pos_b_4","180","us_arb_pos_b_4_180"
"trial","survey","76","1153675","0.0-2.0-74.0","61585be9a9a3151fa46e9433","625e209c10a247530e1c6964","625f0dc26a2e69d8e440ea84","2","3846","","{""P0_Q0"":null,""ambiguous"":null,""objects"":null,""invisible"":null,""chaos"":null}","","","","","","","","","","","","","","","","","[]","Nearby location of Bronx Charter School for Excellence 3 (us_nyc-p_sch_a_6)","ChIJe_mvGSPzwokRCYjGIqRdQGo","40.8872687","-73.8619035","US","NYC","PER","SCH","672 E 224th St, Bronx, NY 10466, USA","us_nyc-p_sch_b_6","0","us_nyc-p_sch_b_6_0"
"trial","survey","77","1222129","0.0-2.0-75.0","61585be9a9a3151fa46e9433","625e209c10a247530e1c6964","625f0dc26a2e69d8e440ea84","2","68431","","{""P0_Q0"":null,""ambiguous"":1,""objects"":1,""invisible"":1,""chaos"":1}","","","","","","","","","","","","","","","","","[]","Shinshuku Elementary School","ChIJM1VHO19gGGARYHbYkz0tS8E","35.5572368","139.7158925","JP","TOK","PER","SCH","1-chōme-5-1 Kamatahonchō, Ota City, Tokyo 144-0053, Japan","jp_tok-p_sch_a_2","270","jp_tok-p_sch_a_2_270"
"trial","survey","78","1229042","0.0-2.0-76.0","61585be9a9a3151fa46e9433","625e209c10a247530e1c6964","625f0dc26a2e69d8e440ea84","2","6865","","{""P0_Q0"":null,""ambiguous"":2,""objects"":2,""invisible"":1,""chaos"":1}","","","","","","","","","","","","","","","","","[]","United States Postal Service","ChIJESBBoWz2wokRc5NBjEpQTow","40.8112416","-73.9532884","US","NYC","CTR","POS","365 W 125th St Ste 2A, New York, NY 10027, USA","us_nyc-c_pos_a_1","270","us_nyc-c_pos_a_1_270"
"demographics","survey-html-form","79","1260880","0.0-2.0-77.0","61585be9a9a3151fa46e9433","625e209c10a247530e1c6964","625f0dc26a2e69d8e440ea84","2","31810","","{""age"":""29"",""gender"":""female"",""gender-self-describe"":"""",""zipcode"":""95376""}","","","","","","","","","","","","","","","","","","","","","","","","","","","","",""
"demographics","survey","80","1285961","0.0-2.0-78.0","61585be9a9a3151fa46e9433","625e209c10a247530e1c6964","625f0dc26a2e69d8e440ea84","2","25034","","{""P0_Q0"":null,""outsideUS"":""No"",""outsideUS_years"":""""}","","","","","","","","","","","","","","","","","[]","","","","","","","","","","","",""
"end-survey","survey-text","81","1288657","0.0-2.0-79.0","61585be9a9a3151fa46e9433","625e209c10a247530e1c6964","625f0dc26a2e69d8e440ea84","2","2683","","{""Q0"":""""}","","","","","","","","","","","","","","","","","","","","","","","","","","","","",""
