"task","trial_type","trial_index","time_elapsed","internal_node_id","subject_id","study_id","session_id","group","rt","stimulus","response","width","height","webaudio","browser","browser_version","mobile","os","fullscreen","vsync_rate","webcam","microphone","success","timeout","failed_images","failed_audio","failed_video","accuracy","name","place_id","lat","lng","culture","loc1","loc2","loct","address","loc_id_prev","angle","loc_id"
"pavlovia-init","pavlovia","0","1254","0.0-0.0","60cbde84eb3169645f11cdbc","625e209c10a247530e1c6964","625ee472ef3ecfe54a2d0287","1","","","","","","","","","","","","","","","","","","","","","","","","","","","","","","","",""
"consent","html-button-response","1","68474","0.0-1.0","60cbde84eb3169645f11cdbc","625e209c10a247530e1c6964","625ee472ef3ecfe54a2d0287","1","67216","
        <div style=""font-size: 80%; max-width:700px"">
            <h2>Informed Consent</h2><br>
        
            <div style=""text-align: left"">
            <h3>Streetscape Perceptions</h3>
            <b>HUM00189138</b>
            <br><hr>
        
            <h4>DESCRIPTION</h4>
            <p>
                In this study, you will view Google Street View images. You will then answer questions about your impressions of the streetscapes presented in those images.
            </p><br>
        
            <h4>TIME INVOLVEMENT</h4>
            <p>Your participation will take approximately 30 minutes.</p><br>
        
            <h4>RISKS AND BENEFITS</h4>
            <p>
                The risks associated with this study are minimal. The benefits which may reasonably be expected to result from this study are none.  We cannot and do not guarantee or promise that you will receive any benefits from this study. 
            </p><br>
        
            <h4>PAYMENTS</h4>
            <p>You will be paid <b>$5.00</b> for your participation.</p><br>
        
            <h4>SUBJECT'S RIGHTS</h4>
            <p>
                If you have read this form and have decided to participate in this project, please understand your participation is voluntary and you have the right to withdraw your consent or discontinue participation at any time without penalty or loss of benefits to which you are otherwise entitled.  The alternative is not to participate.  You have the right to refuse to answer particular questions.  
            </p>
        
            <p>
                Your individual privacy will be maintained in all published and written data resulting from the study. Your responses will be kept confidential: you are given a participant code, and no one, not even the research team, can match that code with your identity. Your collected information may also be shared with other researchers as part of our dataset.
            </p><br>
        
            <h4>CONTACT INFORMATION</h4>
            <p>
                Questions: If you have any questions, concerns or complaints about this research, its procedures, risks and benefits, contact the Protocol Director, Nicholas Camp, npcamp@umich.edu, (443) 851-6783.
            </p>
        
            <p>
                If you have questions about your rights as a research participant, or wish to obtain information, ask questions or discuss any concerns about this study with someone other than the researcher(s), please contact the following:
                <br><br>
        
                University of Michigan<br>
                Health Sciences and Behavioral Sciences Institutional Review Board
                (IRB-HSBS)<br>
                2800 Plymouth Road <br>
                Building 520, Room 1169 <br>
                Ann Arbor, MI 48109-2800 <br>
                Telephone: 734-936-0933 or toll free (866) 936-0933 <br>
                Fax: 734-936-1852 <br />
                E-mail: irbhsbs@umich.edu <br>
            </p>
        
            <p>
                You can also contact the University of Michigan Compliance Hotline at 1-866-990-0111. You may also print this consent form to keep.
            </p>
            <br>
        
            <div class=""alert alert-warning""><b>
                Do you consent to participate in this study? If you consent to participate in this study, please click “Accept and continue.”
            </b></div>
            </div>
        </div>
    ","1","","","","","","","","","","","","","","","","","","","","","","","","","","","","",""
"browser-check","browser-check","2","69214","0.0-2.0-0.0","60cbde84eb3169645f11cdbc","625e209c10a247530e1c6964","625ee472ef3ecfe54a2d0287","1","","","","980","1976","true","chrome","100.0.4896","true","Android OS","true","82.75","true","true","","","","","","","","","","","","","","","","","",""
"","preload","3","70474","0.0-2.0-1.0","60cbde84eb3169645f11cdbc","625e209c10a247530e1c6964","625ee472ef3ecfe54a2d0287","1","","","","","","","","","","","","","","","true","false","[]","[]","[]","","","","","","","","","","","","",""
"instructions","html-button-response","4","90975","0.0-2.0-2.0","60cbde84eb3169645f11cdbc","625e209c10a247530e1c6964","625ee472ef3ecfe54a2d0287","1","20498","
        <div class=""text-container"">
            <h1>Welcome to the study!</h1>
            
            <div class=""text-left"">
                <p>
                    In this study, we are interested in how people think about different Google Street View images. Google Street View takes pictures of streets used for Google Earth and Google Maps. You’ll see Google Street View images of different places and answer some questions about each one.
                </p>
            </div>
            
            <img src='
            https://maps.googleapis.com/maps/api/streetview?size=640x320
            &location=37.783631,-122.432766
            &heading=80
            &pitch=2
            &fov=100
            &radius=150
            &key=AIzaSyC2OxRDg6qlzZDj7j0UAD2XyE0qWokLvvs
            &source=outdoor'>
        
            <br>
        <br>
    ","0","","","","","","","","","","","","","","","","","","","","","","","","","","","","",""
"instructions","html-button-response","5","178302","0.0-2.0-3.0","60cbde84eb3169645f11cdbc","625e209c10a247530e1c6964","625ee472ef3ecfe54a2d0287","1","87019","
        <style>
            img.small {
            max-width: 100px;
            }
            li {
            text-indent: 40px;
            }
        </style>

        <div class=""text-container text-left"">
            <p>For each picture, we’d like your impressions of the scene:</p>
            
            <hr>
                Are there <b>clear, distinct boundaries</b> between objects in the scene, or are the <b>boundaries ambiguous or unclear</b>?
                
                <li>clear, distinct boundaries: <img class=""small"" src=""assets/img/ambiguous-low.png""></li>
                <li>ambiguous or unclear boundaries: <img class=""small"" src=""assets/img/ambiguous-high.png""></li>
            <hr>
            <br>
                Are there <b>only a few different objects</b> in the scene, or is there <b>a large number</b>?
            <br><br>
            <hr>
                Are only <b>a few parts</b> of the scene <b>invisible or obscured</b>, or are <b>many parts invisible or obscured</b>?
                
                <li>a few parts invisible or obscured: <img class=""small"" src=""assets/img/invisible-low.png""></li>
                <li>many parts invisible or obscured: <img class=""small"" src=""assets/img/invisible-high.png""></li>
            <hr>
            <br>
                Does the scene look <b>organized</b> or <b>chaotic</b> to you?
            <br><br>
            <hr>
            
            <p>
                There are no right or wrong answers: we are interested in <b>your</b> impression. Note that some images might have individual buildings or faces blurred for privacy. Please ignore these when making your judgments.
            </p>
        </div>
        <br>
    ","0","","","","","","","","","","","","","","","","","","","","","","","","","","","","",""
"instructions","html-button-response","6","196680","0.0-2.0-4.0","60cbde84eb3169645f11cdbc","625e209c10a247530e1c6964","625ee472ef3ecfe54a2d0287","1","18375","
        <div class=""text-container text-left"">
            <p>Please make sure you are doing this study in an area where you can focus and complete the survey in one sitting.</p>

            <p>Don’t spend too much time on any one picture, and, again go with your gut impression!</p>
            
            <p>The study should take about 30 minutes. We’ll let you know when you’re halfway through.</p>
        </div>
            
        <h3>Ready? Click next to get started!</h3>
        <br>
    ","0","","","","","","","","","","","","","","","","","","","","","","","","","","","","",""
"trial","survey","7","280708","0.0-2.0-5.0","60cbde84eb3169645f11cdbc","625e209c10a247530e1c6964","625ee472ef3ecfe54a2d0287","1","83967","","{""P0_Q0"":null,""ambiguous"":4,""objects"":4,""invisible"":4,""chaos"":4}","","","","","","","","","","","","","","","","","[]","Nearby location of Flexstay Inn Shinagawa (jp_tok-p_htl_a_mid2)","ChIJd27F2VyKGGARc1F75nZNGYI","35.6235067","139.7415021","JP","TOK","PER","HTL","1-chōme-8-19 Kitashinagawa, Shinagawa City, Tokyo 140-0001, Japan","jp_tok-p_htl_b_mid2","270","jp_tok-p_htl_b_mid2_270"
"trial","survey","8","306244","0.0-2.0-6.0","60cbde84eb3169645f11cdbc","625e209c10a247530e1c6964","625ee472ef3ecfe54a2d0287","1","25523","","{""P0_Q0"":null,""ambiguous"":4,""objects"":4,""invisible"":4,""chaos"":4}","","","","","","","","","","","","","","","","","[]","Nearby location of The Hoxton Williamsburg (us_nyc-p_htl_a_high2)","ChIJyY4VgmdZwokRJvRjPQxu5_w","40.7197786","-73.9599015","US","NYC","PER","HTL","131 Wythe Ave, Brooklyn, NY 11249, USA","us_nyc-p_htl_b_high2","90","us_nyc-p_htl_b_high2_90"
"trial","survey","9","368343","0.0-2.0-7.0","60cbde84eb3169645f11cdbc","625e209c10a247530e1c6964","625ee472ef3ecfe54a2d0287","1","62083","","{""P0_Q0"":null,""ambiguous"":4,""objects"":4,""invisible"":3,""chaos"":2}","","","","","","","","","","","","","","","","","[]","Nearby location of INTERCONTINENTAL THE STRINGS (jp_tok-c_htl_a_mid2)","ChIJAb1kM0WKGGARue_1-lZ6ilo","35.6290559","139.7422638","JP","TOK","CTR","HTL","2-chōme-2-2-14 Kōnan, Minato City, Tokyo 108-0075, Japan","jp_tok-c_htl_b_mid2","0","jp_tok-c_htl_b_mid2_0"
"trial","survey","10","400439","0.0-2.0-8.0","60cbde84eb3169645f11cdbc","625e209c10a247530e1c6964","625ee472ef3ecfe54a2d0287","1","32086","","{""P0_Q0"":null,""ambiguous"":1,""objects"":1,""invisible"":1,""chaos"":1}","","","","","","","","","","","","","","","","","[]","Nearby location of United States Postal Service (us_chl_pos_a_1)","ChIJt-RJ963OPIgRV95g54XMslo","42.3073218","-84.0212878","US","CHL","CHL","POS","1070 S Main St, Chelsea, MI 48118, USA","us_chl_pos_b_1","270","us_chl_pos_b_1_270"
"trial","survey","11","439133","0.0-2.0-9.0","60cbde84eb3169645f11cdbc","625e209c10a247530e1c6964","625ee472ef3ecfe54a2d0287","1","38683","","{""P0_Q0"":null,""ambiguous"":3,""objects"":2,""invisible"":2,""chaos"":2}","","","","","","","","","","","","","","","","","[]","Nearby location of Sasazuka Elementary School (jp_tok-c_sch_a_6)","ChIJcyp_VT3zGGARh4qzbdhRhms","35.6750919","139.6707803","JP","TOK","CTR","SCH","Japan, 〒151-0073 Tokyo, Shibuya City, Sasazuka, 1-chōme−52−３ ルアンビル","jp_tok-c_sch_b_6","90","jp_tok-c_sch_b_6_90"
"trial","survey","12","475244","0.0-2.0-10.0","60cbde84eb3169645f11cdbc","625e209c10a247530e1c6964","625ee472ef3ecfe54a2d0287","1","36100","","{""P0_Q0"":null,""ambiguous"":3,""objects"":3,""invisible"":3,""chaos"":2}","","","","","","","","","","","","","","","","","[]","The Hoxton Williamsburg","WVNYC801","40.7207","-73.95876","US","NYC","PER","HTL","97 WYTHE AVENUE, NEW YORK, NY 11249","us_nyc-p_htl_a_high2","270","us_nyc-p_htl_a_high2_270"
"trial","survey","13","520328","0.0-2.0-11.0","60cbde84eb3169645f11cdbc","625e209c10a247530e1c6964","625ee472ef3ecfe54a2d0287","1","45072","","{""P0_Q0"":null,""ambiguous"":3,""objects"":4,""invisible"":3,""chaos"":2}","","","","","","","","","","","","","","","","","[]","Graduate Ann Arbor","GPARB348","42.28143","-83.74164","US","ARB","ARB","HTL","615 E HURON ST , ANN ARBOR, MI 48104","us_arb_htl_a_high1","270","us_arb_htl_a_high1_270"
"trial","survey","14","550393","0.0-2.0-12.0","60cbde84eb3169645f11cdbc","625e209c10a247530e1c6964","625ee472ef3ecfe54a2d0287","1","30055","","{""P0_Q0"":null,""ambiguous"":2,""objects"":1,""invisible"":1,""chaos"":1}","","","","","","","","","","","","","","","","","[]","Jittered SV for Nearby location of Marunouchi Center Bldg. Post Office (jp_tok-c_pos_a_8) (jp_tok-c_pos_b_8)","ChIJnUcMGviLGGAROCgXeJNX4xg","35.6853494","139.7632784","JP","TOK","CTR","POS","Otemachi Sta., 2 Chome-1-1 Ōtemachi, Chiyoda City, Tokyo 100-0004, Japan","jp_tok-c_pos_b_8","90","jp_tok-c_pos_b_8_90"
"trial","survey","15","592096","0.0-2.0-13.0","60cbde84eb3169645f11cdbc","625e209c10a247530e1c6964","625ee472ef3ecfe54a2d0287","1","41695","","{""P0_Q0"":null,""ambiguous"":2,""objects"":3,""invisible"":2,""chaos"":3}","","","","","","","","","","","","","","","","","[]","United States Postal Service","ChIJbSwe0opYwokRPnmsjLkkilA","40.8276833","-73.9365073","US","NYC","CTR","POS","99 Macombs Pl, New York, NY 10039, USA","us_nyc-c_pos_a_3","0","us_nyc-c_pos_a_3_0"
"trial","survey","16","623050","0.0-2.0-14.0","60cbde84eb3169645f11cdbc","625e209c10a247530e1c6964","625ee472ef3ecfe54a2d0287","1","30939","","{""P0_Q0"":null,""ambiguous"":5,""objects"":4,""invisible"":4,""chaos"":3}","","","","","","","","","","","","","","","","","[]","長浜BGホテル","ChIJybhHhispAmARj0lscxsbskI","35.391991","136.282838","JP","TOR","TOR","HTL","300 Kawasakichō, Nagahama, Shiga 526-0846, Japan","jp_tor_htl_a_mid1","180","jp_tor_htl_a_mid1_180"
"trial","survey","17","659777","0.0-2.0-15.0","60cbde84eb3169645f11cdbc","625e209c10a247530e1c6964","625ee472ef3ecfe54a2d0287","1","36718","","{""P0_Q0"":null,""ambiguous"":4,""objects"":4,""invisible"":4,""chaos"":3}","","","","","","","","","","","","","","","","","[]","Higashi-Asakusa Elementary School","ChIJQ2511u2OGGAR0Tk3tO-VmJw","35.724431","139.798207","JP","TOK","CTR","SCH","2-chōme-27-19 Higashiasakusa, Taito City, Tokyo 111-0025, Japan","jp_tok-c_sch_a_8","0","jp_tok-c_sch_a_8_0"
"trial","survey","18","685250","0.0-2.0-16.0","60cbde84eb3169645f11cdbc","625e209c10a247530e1c6964","625ee472ef3ecfe54a2d0287","1","25461","","{""P0_Q0"":null,""ambiguous"":5,""objects"":5,""invisible"":4,""chaos"":4}","","","","","","","","","","","","","","","","","[]","Hotel JAL City Tokyo Toyosu","NKTYOHJC","35.68408","139.80885","JP","TOK","PER","HTL","6 4 20 TOYOSU KOTO KU, TOKYO 1350061","jp_tok-p_htl_a_mid1","180","jp_tok-p_htl_a_mid1_180"
"trial","survey","19","710400","0.0-2.0-17.0","60cbde84eb3169645f11cdbc","625e209c10a247530e1c6964","625ee472ef3ecfe54a2d0287","1","25138","","{""P0_Q0"":null,""ambiguous"":4,""objects"":4,""invisible"":4,""chaos"":3}","","","","","","","","","","","","","","","","","[]","United States Postal Service","ChIJbSwe0opYwokRPnmsjLkkilA","40.8276833","-73.9365073","US","NYC","CTR","POS","99 Macombs Pl, New York, NY 10039, USA","us_nyc-c_pos_a_3","270","us_nyc-c_pos_a_3_270"
"trial","survey","20","740350","0.0-2.0-18.0","60cbde84eb3169645f11cdbc","625e209c10a247530e1c6964","625ee472ef3ecfe54a2d0287","1","29938","","{""P0_Q0"":null,""ambiguous"":4,""objects"":4,""invisible"":4,""chaos"":3}","","","","","","","","","","","","","","","","","[]","Nearby location of Shinshuku Elementary School (jp_tok-p_sch_a_2)","ChIJQemZKVlgGGARmLFMYv3EENc","35.5584586","139.7170675","JP","TOK","PER","SCH","Japan, 〒144-0053 Tokyo, Ota City, Kamatahonchō, 1-chōme−2−５ ＮＴＴ蒲田ビル","jp_tok-p_sch_b_2","0","jp_tok-p_sch_b_2_0"
"trial","survey","21","772771","0.0-2.0-19.0","60cbde84eb3169645f11cdbc","625e209c10a247530e1c6964","625ee472ef3ecfe54a2d0287","1","32409","","{""P0_Q0"":null,""ambiguous"":3,""objects"":3,""invisible"":3,""chaos"":2}","","","","","","","","","","","","","","","","","[]","Nearby location of P.S. 153 Adam Clayton Powell (us_nyc-c_sch_a_3)","ChIJ37jL5mL2wokRoeoE0seWQ44","40.8276038","-73.9486798","US","NYC","CTR","SCH","547 W 147th St, New York, NY 10031, USA","us_nyc-c_sch_b_3","180","us_nyc-c_sch_b_3_180"
"trial","survey","22","809571","0.0-2.0-20.0","60cbde84eb3169645f11cdbc","625e209c10a247530e1c6964","625ee472ef3ecfe54a2d0287","1","36789","","{""P0_Q0"":null,""ambiguous"":3,""objects"":3,""invisible"":3,""chaos"":2}","","","","","","","","","","","","","","","","","[]","Nearby location of Hilton Garden Inn New York/Manhattan-Midtown East (us_nyc-c_htl_a_low2)","ChIJp7rOeORYwokR0fuDKJJiHkw","40.7579935","-73.9679168","US","NYC","CTR","HTL","223 E 54th St, New York, NY 10022, USA","us_nyc-c_htl_b_low2","270","us_nyc-c_htl_b_low2_270"
"trial","survey","23","840327","0.0-2.0-21.0","60cbde84eb3169645f11cdbc","625e209c10a247530e1c6964","625ee472ef3ecfe54a2d0287","1","30745","","{""P0_Q0"":null,""ambiguous"":4,""objects"":4,""invisible"":4,""chaos"":4}","","","","","","","","","","","","","","","","","[]","Fairfield Inn and Suites by Marriott New York Manhattan Times Square","FNNYCFIF","40.75652","-73.99247","US","NYC","CTR","HTL","330 WEST 40TH STREET, NEW YORK, NY 10018","us_nyc-c_htl_a_mid1","90","us_nyc-c_htl_a_mid1_90"
"trial","survey","24","886598","0.0-2.0-22.0","60cbde84eb3169645f11cdbc","625e209c10a247530e1c6964","625ee472ef3ecfe54a2d0287","1","46258","","{""P0_Q0"":null,""ambiguous"":2,""objects"":2,""invisible"":2,""chaos"":1}","","","","","","","","","","","","","","","","","[]","Hilton New York JFK Airport, NY","HHJFK153","40.66771","-73.79584","US","NYC","PER","HTL","144 02 135TH AVENUE, JAMAICA, NY 11436","us_nyc-p_htl_a_mid2","270","us_nyc-p_htl_a_mid2_270"
"trial","survey","25","911416","0.0-2.0-23.0","60cbde84eb3169645f11cdbc","625e209c10a247530e1c6964","625ee472ef3ecfe54a2d0287","1","24809","","{""P0_Q0"":null,""ambiguous"":2,""objects"":2,""invisible"":2,""chaos"":1}","","","","","","","","","","","","","","","","","[]","Nearby location of Wave Preparatory Elementary School (us_nyc-p_sch_a_4)","ChIJTRYCJ69owokRpkzkKnXhZN4","40.5983625","-73.7567706","US","NYC","PER","SCH","4-16 Beach 22nd St, Far Rockaway, NY 11691, USA","us_nyc-p_sch_b_4","0","us_nyc-p_sch_b_4_0"
"trial","survey","26","947383","0.0-2.0-24.0","60cbde84eb3169645f11cdbc","625e209c10a247530e1c6964","625ee472ef3ecfe54a2d0287","1","35955","","{""P0_Q0"":null,""ambiguous"":2,""objects"":2,""invisible"":3,""chaos"":1}","","","","","","","","","","","","","","","","","[]","Ann Arbor Christian School","ChIJ1SluE2-tPIgR2t57M0S5d6M","42.354132","-83.750108","US","ARB","ARB","SCH","5500 Whitmore Lake Rd, Ann Arbor, MI 48105, USA","us_arb_sch_a_2","270","us_arb_sch_a_2_270"
"trial","survey","27","979370","0.0-2.0-25.0","60cbde84eb3169645f11cdbc","625e209c10a247530e1c6964","625ee472ef3ecfe54a2d0287","1","31975","","{""P0_Q0"":null,""ambiguous"":4,""objects"":3,""invisible"":4,""chaos"":3}","","","","","","","","","","","","","","","","","[]","Mukaihara Elementary School","ChIJr51ciUjtGGARi9CcLnWMRwg","35.7416333","139.6818636","JP","TOK","PER","SCH","2-chōme-34-1 Mukaihara, Itabashi City, Tokyo 173-0036, Japan","jp_tok-p_sch_a_4","180","jp_tok-p_sch_a_4_180"
"trial","survey","28","1003596","0.0-2.0-26.0","60cbde84eb3169645f11cdbc","625e209c10a247530e1c6964","625ee472ef3ecfe54a2d0287","1","24217","","{""P0_Q0"":null,""ambiguous"":4,""objects"":4,""invisible"":4,""chaos"":3}","","","","","","","","","","","","","","","","","[]","Tokyo Marriott Hotel","MCTYOMCM","35.62207","139.73696","JP","TOK","PER","HTL","4-7-36 KITASHINAGAWA SHINAGAWA, TOKYO 140-0001","jp_tok-p_htl_a_high1","180","jp_tok-p_htl_a_high1_180"
"trial","survey","29","1039083","0.0-2.0-27.0","60cbde84eb3169645f11cdbc","625e209c10a247530e1c6964","625ee472ef3ecfe54a2d0287","1","35476","","{""P0_Q0"":null,""ambiguous"":3,""objects"":4,""invisible"":3,""chaos"":2}","","","","","","","","","","","","","","","","","[]","Nearby location of United States Postal Service (us_nyc-c_pos_a_3)","ChIJpWHPQID2wokRneXgmeORzP4","40.8291253","-73.9375732","US","NYC","CTR","POS","2925 Frederick Douglass Blvd, New York, NY 10039, USA","us_nyc-c_pos_b_3","90","us_nyc-c_pos_b_3_90"
"trial","survey","30","1068233","0.0-2.0-28.0","60cbde84eb3169645f11cdbc","625e209c10a247530e1c6964","625ee472ef3ecfe54a2d0287","1","29137","","{""P0_Q0"":null,""ambiguous"":3,""objects"":3,""invisible"":3,""chaos"":2}","","","","","","","","","","","","","","","","","[]","Nearby location of Hotel JAL City Tokyo Toyosu (jp_tok-p_htl_a_mid1)","ChIJhxfMYB-JGGARzU1jFMgKRZ8","35.684968","139.8100484","JP","TOK","PER","HTL","1-chōme-1-7 Sarue, Koto City, Tokyo 135-0003, Japan","jp_tok-p_htl_b_mid1","180","jp_tok-p_htl_b_mid1_180"
"trial","survey","31","1094443","0.0-2.0-29.0","60cbde84eb3169645f11cdbc","625e209c10a247530e1c6964","625ee472ef3ecfe54a2d0287","1","26196","","{""P0_Q0"":null,""ambiguous"":4,""objects"":4,""invisible"":4,""chaos"":2}","","","","","","","","","","","","","","","","","[]","Nearby location of Mitchell Elementary School (us_arb_sch_a_4)","ChIJs-axekGvPIgRBvxYNOm48Hc","42.2361096","-83.6952309","US","ARB","ARB","SCH","3318 Williamsburg Rd, Ann Arbor, MI 48108, USA","us_arb_sch_b_4","180","us_arb_sch_b_4_180"
"trial","survey","32","1118838","0.0-2.0-30.0","60cbde84eb3169645f11cdbc","625e209c10a247530e1c6964","625ee472ef3ecfe54a2d0287","1","24382","","{""P0_Q0"":null,""ambiguous"":4,""objects"":4,""invisible"":4,""chaos"":3}","","","","","","","","","","","","","","","","","[]","Kakezuka Elementary School","ChIJLYvCVhSLGGARQZ0PUiBKWkg","35.6443992","139.714528","JP","TOK","CTR","SCH","4-chōme-21-10 Ebisu, Shibuya City, Tokyo 150-0013, Japan","jp_tok-c_sch_a_4","0","jp_tok-c_sch_a_4_0"
"trial","survey","33","1148602","0.0-2.0-31.0","60cbde84eb3169645f11cdbc","625e209c10a247530e1c6964","625ee472ef3ecfe54a2d0287","1","29754","","{""P0_Q0"":null,""ambiguous"":4,""objects"":4,""invisible"":4,""chaos"":2}","","","","","","","","","","","","","","","","","[]","Comfort Inn JFK Airport","CINYC672","40.66585","-73.80762","US","NYC","PER","HTL","132-15 NASSAU EXPRESSWAY, JAMAICA, NY 11430","us_nyc-p_htl_a_low2","180","us_nyc-p_htl_a_low2_180"
"trial","survey","34","1177302","0.0-2.0-32.0","60cbde84eb3169645f11cdbc","625e209c10a247530e1c6964","625ee472ef3ecfe54a2d0287","1","28688","","{""P0_Q0"":null,""ambiguous"":2,""objects"":2,""invisible"":2,""chaos"":1}","","","","","","","","","","","","","","","","","[]","Jittered SV for Nearby location of The Tokyo Station Hotel (jp_tok-c_htl_a_high2) (jp_tok-c_htl_b_high2)","ChIJYczFnPyLGGARpA9nubZ6QGc","35.679239","139.76798","JP","TOK","CTR","HTL","Tokyo Sta. Yaesuguchi(Yaesu Exit), 2-chōme-3 Yaesu, Chuo City, Tokyo 104-0028, Japan","jp_tok-c_htl_b_high2","180","jp_tok-c_htl_b_high2_180"
"trial","survey","35","1201362","0.0-2.0-33.0","60cbde84eb3169645f11cdbc","625e209c10a247530e1c6964","625ee472ef3ecfe54a2d0287","1","24050","","{""P0_Q0"":null,""ambiguous"":4,""objects"":4,""invisible"":4,""chaos"":3}","","","","","","","","","","","","","","","","","[]","Bunkyo Otsuka 3 Post Office","ChIJ2xa06qWNGGARyOBmGzqDPvY","35.7218144","139.7382888","JP","TOK","CTR","POS","3-chōme-39-7 Ōtsuka, Bunkyo City, Tokyo 112-0012, Japan","jp_tok-c_pos_a_7","90","jp_tok-c_pos_a_7_90"
"trial","survey","36","1230360","0.0-2.0-34.0","60cbde84eb3169645f11cdbc","625e209c10a247530e1c6964","625ee472ef3ecfe54a2d0287","1","28983","","{""P0_Q0"":null,""ambiguous"":3,""objects"":3,""invisible"":3,""chaos"":2}","","","","","","","","","","","","","","","","","[]","Nearby location of Rakuten STAY HOUSE×WILLSTYLE 八幡堀 (jp_hik_htl_a_high1)","ChIJ-fEvCXl5AWAR8xruOW8CYd0","35.1408592","136.0976484","JP","HIK","HIK","HTL","485-9 Tagachō, Omihachiman, Shiga 523-0821, Japan","jp_hik_htl_b_high1","90","jp_hik_htl_b_high1_90"
"trial","survey","37","1253535","0.0-2.0-35.0","60cbde84eb3169645f11cdbc","625e209c10a247530e1c6964","625ee472ef3ecfe54a2d0287","1","23164","","{""P0_Q0"":null,""ambiguous"":3,""objects"":3,""invisible"":3,""chaos"":2}","","","","","","","","","","","","","","","","","[]","Nearby location of Yonehara Shiritsu Yonehara Elementary School (jp_hik_sch_a_1)","ChIJHY8tRnsrAmARDrvbTNjR_tg","35.3153923","136.2799377","JP","HIK","HIK","SCH","Japan, 〒521-0011 Shiga, Maibara, Nakatara, ６０３−１ Sun Village 米原","jp_hik_sch_b_1","180","jp_hik_sch_b_1_180"
"trial","survey","38","1292190","0.0-2.0-36.0","60cbde84eb3169645f11cdbc","625e209c10a247530e1c6964","625ee472ef3ecfe54a2d0287","1","38644","","{""P0_Q0"":null,""ambiguous"":2,""objects"":3,""invisible"":2,""chaos"":2}","","","","","","","","","","","","","","","","","[]","Nearby location of The Williamsburg Hotel (us_nyc-p_htl_a_high1)","ChIJH00_Y11ZwokR19006V8VF7Q","40.7203468","-73.9589785","US","NYC","PER","HTL","84 N 9th St, Brooklyn, NY 11249, USA","us_nyc-p_htl_b_high1","90","us_nyc-p_htl_b_high1_90"
"trial","survey","39","1320082","0.0-2.0-37.0","60cbde84eb3169645f11cdbc","625e209c10a247530e1c6964","625ee472ef3ecfe54a2d0287","1","27884","","{""P0_Q0"":null,""ambiguous"":4,""objects"":3,""invisible"":3,""chaos"":2}","","","","","","","","","","","","","","","","","[]","Flexstay Inn Shinagawa","HSTYOAIW","35.62213","139.7401","JP","TOK","PER","HTL","1-22-19, KITASHINAGAWA, TOKYO 140-0001","jp_tok-p_htl_a_mid2","0","jp_tok-p_htl_a_mid2_0"
"trial","survey","40","1349789","0.0-2.0-38.0","60cbde84eb3169645f11cdbc","625e209c10a247530e1c6964","625ee472ef3ecfe54a2d0287","1","29695","","{""P0_Q0"":null,""ambiguous"":3,""objects"":3,""invisible"":2,""chaos"":2}","","","","","","","","","","","","","","","","","[]","Nerima Sakuradai Post Office","ChIJazp3ghLtGGARuc0S6p6HeSM","35.7372339","139.6605353","JP","TOK","PER","POS","2-chōme-22-14 Toyotamakami, Nerima City, Tokyo 176-0011, Japan","jp_tok-p_pos_a_5","270","jp_tok-p_pos_a_5_270"
"trial","survey","41","1383747","0.0-2.0-39.0","60cbde84eb3169645f11cdbc","625e209c10a247530e1c6964","625ee472ef3ecfe54a2d0287","1","33946","","{""P0_Q0"":null,""ambiguous"":3,""objects"":2,""invisible"":3,""chaos"":1}","","","","","","","","","","","","","","","","","[]","Nearby location of Ann Arbor Hills Child Development Center (us_arb_sch_a_1)","ChIJayC39uGuPIgRi68_P3AKb4Y","42.2614403","-83.7036603","US","ARB","ARB","SCH","1620 Glenwood Rd, Ann Arbor, MI 48104, USA","us_arb_sch_b_1","270","us_arb_sch_b_1_270"
"attention-check","survey","42","1397043","0.0-2.0-40.0","60cbde84eb3169645f11cdbc","625e209c10a247530e1c6964","625ee472ef3ecfe54a2d0287","1","13285","","{""P0_Q0"":null,""ambiguous"":null,""objects"":null,""invisible"":null,""chaos"":null}","","","","","","","","","","","","","","","","","[]","","","","","","","","","","","",""
"half-way","html-button-response","43","1412799","0.0-2.0-41.0","60cbde84eb3169645f11cdbc","625e209c10a247530e1c6964","625ee472ef3ecfe54a2d0287","1","null","
            <h3>You are now half way through the study.</h3>
            <p>Please take a quick, 15-second break before you continue.</p>
            <img src='assets/img/countdown-15.gif'>
            <p>The study will automatically advance forward after the countdown is complete. However, you may click ""Next"" to advance forward now if you wish.</p>
        ","null","","","","","","","","","","","","","","","","","","","","","","","","","","","","",""
"trial","survey","44","1443755","0.0-2.0-42.0","60cbde84eb3169645f11cdbc","625e209c10a247530e1c6964","625ee472ef3ecfe54a2d0287","1","30930","","{""P0_Q0"":null,""ambiguous"":4,""objects"":3,""invisible"":3,""chaos"":2}","","","","","","","","","","","","","","","","","[]","Nearby location of Mandarin Oriental New York (us_nyc-c_htl_a_ultra1)","ChIJDTV9gfVYwokR4yg_rfSKw3M","40.7700712","-73.9843251","US","NYC","CTR","HTL","77 Columbus Ave, New York, NY 10023, USA","us_nyc-c_htl_b_ultra1","90","us_nyc-c_htl_b_ultra1_90"
"trial","survey","45","1473898","0.0-2.0-43.0","60cbde84eb3169645f11cdbc","625e209c10a247530e1c6964","625ee472ef3ecfe54a2d0287","1","30130","","{""P0_Q0"":null,""ambiguous"":3,""objects"":3,""invisible"":3,""chaos"":1}","","","","","","","","","","","","","","","","","[]","Success Academy Harlem 5","ChIJLXaSYHr2wokROx6Mq1FzC9A","40.820192","-73.9444568","US","NYC","CTR","SCH","301 W 140th St, New York, NY 10030, USA","us_nyc-c_sch_a_2","180","us_nyc-c_sch_a_2_180"
"trial","survey","46","1498343","0.0-2.0-44.0","60cbde84eb3169645f11cdbc","625e209c10a247530e1c6964","625ee472ef3ecfe54a2d0287","1","24431","","{""P0_Q0"":null,""ambiguous"":3,""objects"":4,""invisible"":3,""chaos"":2}","","","","","","","","","","","","","","","","","[]","Guidepost Montessori at Museum Mile","ChIJM_EqNF5ZwokRqGSOTYl-ARs","40.7764017","-73.9629479","US","NYC","CTR","SCH","12 E 79th St, New York, NY 10075, USA","us_nyc-c_sch_a_7","0","us_nyc-c_sch_a_7_0"
"trial","survey","47","1530015","0.0-2.0-45.0","60cbde84eb3169645f11cdbc","625e209c10a247530e1c6964","625ee472ef3ecfe54a2d0287","1","31661","","{""P0_Q0"":null,""ambiguous"":2,""objects"":3,""invisible"":2,""chaos"":2}","","","","","","","","","","","","","","","","","[]","Nearby location of Ryōgoku Post Office (jp_tok-c_pos_a_5)","ChIJBRNSarKOGGARKk3b5BlK71s","35.696528","139.784235","JP","TOK","CTR","POS","Japan, 〒111-0053 Tokyo, Taito City, Asakusabashi, 1-chōme−2−８ 丸一ビル","jp_tok-c_pos_b_5","180","jp_tok-c_pos_b_5_180"
"trial","survey","48","1565687","0.0-2.0-46.0","60cbde84eb3169645f11cdbc","625e209c10a247530e1c6964","625ee472ef3ecfe54a2d0287","1","35662","","{""P0_Q0"":null,""ambiguous"":4,""objects"":3,""invisible"":3,""chaos"":3}","","","","","","","","","","","","","","","","","[]","Nearby location of Success Academy Harlem 5 (us_nyc-c_sch_a_2)","ChIJT3PK4nr2wokRoJ2P1lBcwyQ","40.8213713","-73.9455112","US","NYC","CTR","SCH","351 W 141st St, New York, NY 10030, USA","us_nyc-c_sch_b_2","0","us_nyc-c_sch_b_2_0"
"trial","survey","49","1592062","0.0-2.0-47.0","60cbde84eb3169645f11cdbc","625e209c10a247530e1c6964","625ee472ef3ecfe54a2d0287","1","26363","","{""P0_Q0"":null,""ambiguous"":4,""objects"":3,""invisible"":3,""chaos"":2}","","","","","","","","","","","","","","","","","[]","Nearby location of Oizumi Daini Elementary School (jp_tok-p_sch_a_6)","ChIJMaeqHtruGGARm4LZU_WxHzQ","35.7454686","139.5741349","JP","TOK","PER","SCH","4-chōme-32-2 Minamiōizumi, Nerima City, Tokyo 178-0064, Japan","jp_tok-p_sch_b_6","270","jp_tok-p_sch_b_6_270"
"trial","survey","50","1623638","0.0-2.0-48.0","60cbde84eb3169645f11cdbc","625e209c10a247530e1c6964","625ee472ef3ecfe54a2d0287","1","31564","","{""P0_Q0"":null,""ambiguous"":3,""objects"":4,""invisible"":3,""chaos"":3}","","","","","","","","","","","","","","","","","[]","The Baltic House","XTNYC653","40.682","-73.985","US","NYC","PER","HTL","489 BALTIC STREET, BROOKLYN, NY 11217","us_nyc-p_htl_a_mid1","270","us_nyc-p_htl_a_mid1_270"
"trial","survey","51","1659087","0.0-2.0-49.0","60cbde84eb3169645f11cdbc","625e209c10a247530e1c6964","625ee472ef3ecfe54a2d0287","1","35438","","{""P0_Q0"":null,""ambiguous"":4,""objects"":2,""invisible"":3,""chaos"":1}","","","","","","","","","","","","","","","","","[]","Léman Manhattan Preparatory School","ChIJ1R3juBZawokRy34rGleDCJs","40.7060686","-74.0140159","US","NYC","CTR","SCH","1 Morris St, New York, NY 10004, USA","us_nyc-c_sch_a_8","90","us_nyc-c_sch_a_8_90"
"trial","survey","52","1690315","0.0-2.0-50.0","60cbde84eb3169645f11cdbc","625e209c10a247530e1c6964","625ee472ef3ecfe54a2d0287","1","31217","","{""P0_Q0"":null,""ambiguous"":2,""objects"":3,""invisible"":3,""chaos"":2}","","","","","","","","","","","","","","","","","[]","United States Postal Service","ChIJt9iTcDz2wokR8BrJr4TbjWQ","40.8049683","-73.9649034","US","NYC","CTR","POS","534 W 112th St, New York, NY 10025, USA","us_nyc-c_pos_a_2","0","us_nyc-c_pos_a_2_0"
"trial","survey","53","1720223","0.0-2.0-51.0","60cbde84eb3169645f11cdbc","625e209c10a247530e1c6964","625ee472ef3ecfe54a2d0287","1","29895","","{""P0_Q0"":null,""ambiguous"":2,""objects"":3,""invisible"":2,""chaos"":1}","","","","","","","","","","","","","","","","","[]","Nearby location of Bronx Charter School for Excellence 3 (us_nyc-p_sch_a_6)","ChIJe_mvGSPzwokRCYjGIqRdQGo","40.8872687","-73.8619035","US","NYC","PER","SCH","672 E 224th St, Bronx, NY 10466, USA","us_nyc-p_sch_b_6","180","us_nyc-p_sch_b_6_180"
"trial","survey","54","1750960","0.0-2.0-52.0","60cbde84eb3169645f11cdbc","625e209c10a247530e1c6964","625ee472ef3ecfe54a2d0287","1","30721","","{""P0_Q0"":null,""ambiguous"":3,""objects"":3,""invisible"":2,""chaos"":1}","","","","","","","","","","","","","","","","","[]","Jittered SV for Nearby location of Marunouchi Center Bldg. Post Office (jp_tok-c_pos_a_8) (jp_tok-c_pos_b_8)","ChIJnUcMGviLGGAROCgXeJNX4xg","35.6853494","139.7632784","JP","TOK","CTR","POS","Otemachi Sta., 2 Chome-1-1 Ōtemachi, Chiyoda City, Tokyo 100-0004, Japan","jp_tok-c_pos_b_8","0","jp_tok-c_pos_b_8_0"
"trial","survey","55","1771815","0.0-2.0-53.0","60cbde84eb3169645f11cdbc","625e209c10a247530e1c6964","625ee472ef3ecfe54a2d0287","1","20845","","{""P0_Q0"":null,""ambiguous"":2,""objects"":2,""invisible"":3,""chaos"":1}","","","","","","","","","","","","","","","","","[]","Ōmori Bellport Post Office","ChIJFXY_sTJgGGARZtQCo-Qdz_M","35.5888587","139.7314559","JP","HIK","HIK","POS","6-chōme-26-3 Minamiōi, Shinagawa City, Tokyo 140-0013, Japan","jp_hik_pos_a_2","270","jp_hik_pos_a_2_270"
"trial","survey","56","1793840","0.0-2.0-54.0","60cbde84eb3169645f11cdbc","625e209c10a247530e1c6964","625ee472ef3ecfe54a2d0287","1","22015","","{""P0_Q0"":null,""ambiguous"":4,""objects"":2,""invisible"":3,""chaos"":1}","","","","","","","","","","","","","","","","","[]","Toshima Minami-Nagasaki Post Office","ChIJjbRx2KnyGGARYqMHBr_HSX0","35.7264975","139.6842311","JP","TOK","CTR","POS","4-chōme-27-5 Minaminagasaki, Toshima City, Tokyo 171-0052, Japan","jp_tok-c_pos_a_4","0","jp_tok-c_pos_a_4_0"
"trial","survey","57","1821471","0.0-2.0-55.0","60cbde84eb3169645f11cdbc","625e209c10a247530e1c6964","625ee472ef3ecfe54a2d0287","1","27622","","{""P0_Q0"":null,""ambiguous"":2,""objects"":3,""invisible"":1,""chaos"":1}","","","","","","","","","","","","","","","","","[]","United States Postal Service","ChIJRxSbQ7LOPIgRxY-tEHFOePE","42.3058978","-84.0197951","US","CHL","CHL","POS","1101 S Main St Ste 100, Chelsea, MI 48118, USA","us_chl_pos_a_1","270","us_chl_pos_a_1_270"
"trial","survey","58","1847627","0.0-2.0-56.0","60cbde84eb3169645f11cdbc","625e209c10a247530e1c6964","625ee472ef3ecfe54a2d0287","1","26145","","{""P0_Q0"":null,""ambiguous"":1,""objects"":1,""invisible"":1,""chaos"":1}","","","","","","","","","","","","","","","","","[]","United States Postal Service","ChIJ-z0tqtinPIgRRFOwdMC_IJo","42.2168766","-83.6200448","US","ARB","ARB","POS","1606 S Huron St, Ypsilanti, MI 48197, USA","us_arb_pos_a_3","270","us_arb_pos_a_3_270"
"trial","survey","59","1880151","0.0-2.0-57.0","60cbde84eb3169645f11cdbc","625e209c10a247530e1c6964","625ee472ef3ecfe54a2d0287","1","32512","","{""P0_Q0"":null,""ambiguous"":5,""objects"":4,""invisible"":4,""chaos"":2}","","","","","","","","","","","","","","","","","[]","Jonan Daini Elementary School","ChIJOzDZZm6KGGARfmI0vkKc_Kw","35.6154264","139.7461583","JP","TOK","PER","SCH","3-chōme-4-5 Higashishinagawa, Shinagawa City, Tokyo 140-0002, Japan","jp_tok-p_sch_a_5","90","jp_tok-p_sch_a_5_90"
"trial","survey","60","1913643","0.0-2.0-58.0","60cbde84eb3169645f11cdbc","625e209c10a247530e1c6964","625ee472ef3ecfe54a2d0287","1","33480","","{""P0_Q0"":null,""ambiguous"":3,""objects"":3,""invisible"":3,""chaos"":1}","","","","","","","","","","","","","","","","","[]","Nearby location of Wave Preparatory Elementary School (us_nyc-p_sch_a_4)","ChIJTRYCJ69owokRpkzkKnXhZN4","40.5983625","-73.7567706","US","NYC","PER","SCH","4-16 Beach 22nd St, Far Rockaway, NY 11691, USA","us_nyc-p_sch_b_4","180","us_nyc-p_sch_b_4_180"
"trial","survey","61","1934731","0.0-2.0-59.0","60cbde84eb3169645f11cdbc","625e209c10a247530e1c6964","625ee472ef3ecfe54a2d0287","1","21079","","{""P0_Q0"":null,""ambiguous"":4,""objects"":2,""invisible"":4,""chaos"":1}","","","","","","","","","","","","","","","","","[]","Aijitsu Elementary School","ChIJzR_MUXS7JhURN_tqq9sSdCs","35.699762","139.7340245","JP","TOK","CTR","SCH","26 Kitamachi, Shinjuku City, Tokyo 162-0834, Japan","jp_tok-c_sch_a_5","0","jp_tok-c_sch_a_5_0"
"trial","survey","62","1963798","0.0-2.0-60.0","60cbde84eb3169645f11cdbc","625e209c10a247530e1c6964","625ee472ef3ecfe54a2d0287","1","29055","","{""P0_Q0"":null,""ambiguous"":4,""objects"":3,""invisible"":4,""chaos"":1}","","","","","","","","","","","","","","","","","[]","Nearby location of Kasai Station Post Office (jp_hik_pos_a_1)","ChIJJ6kVju2HGGAR5jpVAdpfozs","35.6644139","139.8716517","JP","HIK","HIK","POS","3-chōme-33-14 Nakakasai, Edogawa City, Tokyo 134-0083, Japan","jp_hik_pos_b_1","90","jp_hik_pos_b_1_90"
"trial","survey","63","1984386","0.0-2.0-61.0","60cbde84eb3169645f11cdbc","625e209c10a247530e1c6964","625ee472ef3ecfe54a2d0287","1","20577","","{""P0_Q0"":null,""ambiguous"":4,""objects"":4,""invisible"":4,""chaos"":2}","","","","","","","","","","","","","","","","","[]","Nearby location of Bunkyo Otsuka 3 Post Office (jp_tok-c_pos_a_7)","ChIJ8yJGd6-NGGARH10utNOusFo","35.7205268","139.7394333","JP","TOK","CTR","POS","3-chōme-35-1 Ōtsuka, Bunkyo City, Tokyo 112-0012, Japan","jp_tok-c_pos_b_7","180","jp_tok-c_pos_b_7_180"
"trial","survey","64","2003701","0.0-2.0-62.0","60cbde84eb3169645f11cdbc","625e209c10a247530e1c6964","625ee472ef3ecfe54a2d0287","1","19303","","{""P0_Q0"":null,""ambiguous"":3,""objects"":3,""invisible"":3,""chaos"":2}","","","","","","","","","","","","","","","","","[]","Nearby location of INTERCONTINENTAL THE STRINGS (jp_tok-c_htl_a_mid2)","ChIJAb1kM0WKGGARue_1-lZ6ilo","35.6290559","139.7422638","JP","TOK","CTR","HTL","2-chōme-2-2-14 Kōnan, Minato City, Tokyo 108-0075, Japan","jp_tok-c_htl_b_mid2","270","jp_tok-c_htl_b_mid2_270"
"trial","survey","65","2029867","0.0-2.0-63.0","60cbde84eb3169645f11cdbc","625e209c10a247530e1c6964","625ee472ef3ecfe54a2d0287","1","26156","","{""P0_Q0"":null,""ambiguous"":4,""objects"":3,""invisible"":4,""chaos"":3}","","","","","","","","","","","","","","","","","[]","Nearby location of Sasazuka Elementary School (jp_tok-c_sch_a_6)","ChIJcyp_VT3zGGARh4qzbdhRhms","35.6750919","139.6707803","JP","TOK","CTR","SCH","Japan, 〒151-0073 Tokyo, Shibuya City, Sasazuka, 1-chōme−52−３ ルアンビル","jp_tok-c_sch_b_6","0","jp_tok-c_sch_b_6_0"
"trial","survey","66","2055302","0.0-2.0-64.0","60cbde84eb3169645f11cdbc","625e209c10a247530e1c6964","625ee472ef3ecfe54a2d0287","1","25425","","{""P0_Q0"":null,""ambiguous"":3,""objects"":4,""invisible"":3,""chaos"":2}","","","","","","","","","","","","","","","","","[]","United States Postal Service","ChIJj65Q2Jz2wokR_LoJ8_MV6lI","40.8386238","-73.9389823","US","NYC","CTR","POS","511 W 165th St, New York, NY 10032, USA","us_nyc-c_pos_a_4","90","us_nyc-c_pos_a_4_90"
"trial","survey","67","2077791","0.0-2.0-65.0","60cbde84eb3169645f11cdbc","625e209c10a247530e1c6964","625ee472ef3ecfe54a2d0287","1","22477","","{""P0_Q0"":null,""ambiguous"":3,""objects"":2,""invisible"":3,""chaos"":1}","","","","","","","","","","","","","","","","","[]","Nearby location of Mukaihara Elementary School (jp_tok-p_sch_a_4)","ChIJVRTxz0jtGGAR3d5pAzj-FQQ","35.7402285","139.6828032","JP","TOK","PER","SCH","2-chōme-7-6 Mukaihara, Itabashi City, Tokyo 173-0036, Japan","jp_tok-p_sch_b_4","180","jp_tok-p_sch_b_4_180"
"trial","survey","68","2101130","0.0-2.0-66.0","60cbde84eb3169645f11cdbc","625e209c10a247530e1c6964","625ee472ef3ecfe54a2d0287","1","23326","","{""P0_Q0"":null,""ambiguous"":2,""objects"":2,""invisible"":2,""chaos"":1}","","","","","","","","","","","","","","","","","[]","Kotō 3rd Elementary School","ChIJyWBTvO3XA2ARubFCKa9mR4A","35.130888","136.225113","JP","HIK","HIK","SCH","340 Kotakarichō, Higashiomi, Shiga 527-0125, Japan","jp_hik_sch_a_3","90","jp_hik_sch_a_3_90"
"trial","survey","69","2123702","0.0-2.0-67.0","60cbde84eb3169645f11cdbc","625e209c10a247530e1c6964","625ee472ef3ecfe54a2d0287","1","22561","","{""P0_Q0"":null,""ambiguous"":2,""objects"":1,""invisible"":2,""chaos"":1}","","","","","","","","","","","","","","","","","[]","Nearby location of Adahi Sano Post Office (jp_hik_pos_a_3)","ChIJ687ZfeOPGGARr0sg29_jaNA","35.7854552","139.8422615","JP","HIK","HIK","POS","1-chōme-19-3 Sano, Adachi City, Tokyo 121-0053, Japan","jp_hik_pos_b_3","180","jp_hik_pos_b_3_180"
"trial","survey","70","2144801","0.0-2.0-68.0","60cbde84eb3169645f11cdbc","625e209c10a247530e1c6964","625ee472ef3ecfe54a2d0287","1","21087","","{""P0_Q0"":null,""ambiguous"":3,""objects"":1,""invisible"":3,""chaos"":1}","","","","","","","","","","","","","","","","","[]","Nearby location of Daiwa Roynet Hotel Tokyo-Osaki (jp_tok-p_htl_a_low2)","ChIJw8m7kPSKGGAREUfz_puYZs4","35.6168084","139.7277241","JP","TOK","PER","HTL","2-chōme-9-4 Ōsaki, Shinagawa City, Tokyo 141-0032, Japan","jp_tok-p_htl_b_low2","270","jp_tok-p_htl_b_low2_270"
"trial","survey","71","2171802","0.0-2.0-69.0","60cbde84eb3169645f11cdbc","625e209c10a247530e1c6964","625ee472ef3ecfe54a2d0287","1","26988","","{""P0_Q0"":null,""ambiguous"":1,""objects"":1,""invisible"":2,""chaos"":1}","","","","","","","","","","","","","","","","","[]","Nearby location of United States Postal Service (us_nyc-p_pos_a_3)","ChIJe2q9KVpDwokRU6MLLhMmHvo","40.6168044","-73.9301797","US","NYC","PER","POS","Parking lot, 2187 Flatbush Ave, Brooklyn, NY 11234, USA","us_nyc-p_pos_b_3","90","us_nyc-p_pos_b_3_90"
"trial","survey","72","2189641","0.0-2.0-70.0","60cbde84eb3169645f11cdbc","625e209c10a247530e1c6964","625ee472ef3ecfe54a2d0287","1","17826","","{""P0_Q0"":null,""ambiguous"":2,""objects"":1,""invisible"":2,""chaos"":1}","","","","","","","","","","","","","","","","","[]","United States Postal Service","ChIJ2S39Rs6xPIgRFumqYMpJrTE","42.2709374","-83.7748696","US","ARB","ARB","POS","2075 W Stadium Blvd, Ann Arbor, MI 48103, USA","us_arb_pos_a_2","270","us_arb_pos_a_2_270"
"trial","survey","73","2214399","0.0-2.0-71.0","60cbde84eb3169645f11cdbc","625e209c10a247530e1c6964","625ee472ef3ecfe54a2d0287","1","24749","","{""P0_Q0"":null,""ambiguous"":2,""objects"":2,""invisible"":2,""chaos"":1}","","","","","","","","","","","","","","","","","[]","レジーナリゾートびわ湖長浜","ChIJJ5e4VxopAmAR65mu8Uxdxg0","35.3785745","136.2594856","JP","HIK","HIK","HTL","4-22 Kōenchō, Nagahama, Shiga 526-0065, Japan","jp_hik_htl_a_high2","0","jp_hik_htl_a_high2_0"
"trial","survey","74","2236408","0.0-2.0-72.0","60cbde84eb3169645f11cdbc","625e209c10a247530e1c6964","625ee472ef3ecfe54a2d0287","1","21999","","{""P0_Q0"":null,""ambiguous"":2,""objects"":1,""invisible"":2,""chaos"":1}","","","","","","","","","","","","","","","","","[]","Kanponoyado Hikone","ChIJlbdbLicrAmARI9pD-bcXKlg","35.2872369","136.2493256","JP","HIK","HIK","HTL","3759 Matsubarachō, Hikone, Shiga 522-0002, Japan","jp_hik_htl_a_mid1","180","jp_hik_htl_a_mid1_180"
"trial","survey","75","2262322","0.0-2.0-73.0","60cbde84eb3169645f11cdbc","625e209c10a247530e1c6964","625ee472ef3ecfe54a2d0287","1","25904","","{""P0_Q0"":null,""ambiguous"":4,""objects"":4,""invisible"":3,""chaos"":2}","","","","","","","","","","","","","","","","","[]","Nearby location of United States Postal Service (us_nyc-c_pos_a_5)","ChIJTw7oFwP0wokR0VL0nLNaknc","40.857723","-73.93222","US","NYC","CTR","POS","Broadway/W 192 St, New York, NY 10040, USA","us_nyc-c_pos_b_5","180","us_nyc-c_pos_b_5_180"
"trial","survey","76","2284450","0.0-2.0-74.0","60cbde84eb3169645f11cdbc","625e209c10a247530e1c6964","625ee472ef3ecfe54a2d0287","1","22114","","{""P0_Q0"":null,""ambiguous"":3,""objects"":2,""invisible"":2,""chaos"":1}","","","","","","","","","","","","","","","","","[]","Nearby location of Graduate Ann Arbor (us_arb_htl_a_high1)","ChIJYetfYhWuPIgRy9Fx8ebdnWE","42.2824654","-83.7429681","US","ARB","ARB","HTL","501 E Ann St, Ann Arbor, MI 48104, USA","us_arb_htl_b_high1","180","us_arb_htl_b_high1_180"
"trial","survey","77","2306495","0.0-2.0-75.0","60cbde84eb3169645f11cdbc","625e209c10a247530e1c6964","625ee472ef3ecfe54a2d0287","1","22033","","{""P0_Q0"":null,""ambiguous"":4,""objects"":4,""invisible"":3,""chaos"":3}","","","","","","","","","","","","","","","","","[]","Nearby location of The Pearl NYC (us_nyc-c_htl_a_high1)","ChIJH25PJ-dZwokRj_-5BHZLdE0","40.7600987","-73.9843757","US","NYC","CTR","HTL","1596 Broadway, New York, NY 10019, USA","us_nyc-c_htl_b_high1","90","us_nyc-c_htl_b_high1_90"
"trial","survey","78","2335450","0.0-2.0-76.0","60cbde84eb3169645f11cdbc","625e209c10a247530e1c6964","625ee472ef3ecfe54a2d0287","1","28942","","{""P0_Q0"":null,""ambiguous"":3,""objects"":4,""invisible"":3,""chaos"":3}","","","","","","","","","","","","","","","","","[]","Bronx Charter School for Excellence 3","ChIJg2kj5avzwokRaKO_rPdPfu8","40.8883786","-73.8632703","US","NYC","PER","SCH","3956 Carpenter Ave, Bronx, NY 10466, USA","us_nyc-p_sch_a_6","270","us_nyc-p_sch_a_6_270"
"demographics","survey-html-form","79","2358278","0.0-2.0-77.0","60cbde84eb3169645f11cdbc","625e209c10a247530e1c6964","625ee472ef3ecfe54a2d0287","1","22824","","{""age"":""43"",""gender"":""male"",""gender-self-describe"":"""",""zipcode"":""33135""}","","","","","","","","","","","","","","","","","","","","","","","","","","","","",""
"demographics","survey","80","2377688","0.0-2.0-78.0","60cbde84eb3169645f11cdbc","625e209c10a247530e1c6964","625ee472ef3ecfe54a2d0287","1","19382","","{""P0_Q0"":null,""outsideUS"":""No"",""outsideUS_years"":""""}","","","","","","","","","","","","","","","","","[]","","","","","","","","","","","",""
"end-survey","survey-text","81","2405396","0.0-2.0-79.0","60cbde84eb3169645f11cdbc","625e209c10a247530e1c6964","625ee472ef3ecfe54a2d0287","1","27702","","{""Q0"":""No""}","","","","","","","","","","","","","","","","","","","","","","","","","","","","",""
