"task","trial_type","trial_index","time_elapsed","internal_node_id","subject_id","study_id","session_id","group","rt","stimulus","response","width","height","webaudio","browser","browser_version","mobile","os","fullscreen","vsync_rate","webcam","microphone","success","timeout","failed_images","failed_audio","failed_video","accuracy","name","place_id","lat","lng","culture","loc1","loc2","loct","address","loc_id_prev","angle","loc_id"
"pavlovia-init","pavlovia","0","1785","0.0-0.0","61220e0d654ac5a7f3f1d54f","625e209c10a247530e1c6964","625ee535573cebfc9240ed6c","8","","","","","","","","","","","","","","","","","","","","","","","","","","","","","","","",""
"consent","html-button-response","1","23127","0.0-1.0","61220e0d654ac5a7f3f1d54f","625e209c10a247530e1c6964","625ee535573cebfc9240ed6c","8","21332","
        <div style=""font-size: 80%; max-width:700px"">
            <h2>Informed Consent</h2><br>
        
            <div style=""text-align: left"">
            <h3>Streetscape Perceptions</h3>
            <b>HUM00189138</b>
            <br><hr>
        
            <h4>DESCRIPTION</h4>
            <p>
                In this study, you will view Google Street View images. You will then answer questions about your impressions of the streetscapes presented in those images.
            </p><br>
        
            <h4>TIME INVOLVEMENT</h4>
            <p>Your participation will take approximately 30 minutes.</p><br>
        
            <h4>RISKS AND BENEFITS</h4>
            <p>
                The risks associated with this study are minimal. The benefits which may reasonably be expected to result from this study are none.  We cannot and do not guarantee or promise that you will receive any benefits from this study. 
            </p><br>
        
            <h4>PAYMENTS</h4>
            <p>You will be paid <b>$5.00</b> for your participation.</p><br>
        
            <h4>SUBJECT'S RIGHTS</h4>
            <p>
                If you have read this form and have decided to participate in this project, please understand your participation is voluntary and you have the right to withdraw your consent or discontinue participation at any time without penalty or loss of benefits to which you are otherwise entitled.  The alternative is not to participate.  You have the right to refuse to answer particular questions.  
            </p>
        
            <p>
                Your individual privacy will be maintained in all published and written data resulting from the study. Your responses will be kept confidential: you are given a participant code, and no one, not even the research team, can match that code with your identity. Your collected information may also be shared with other researchers as part of our dataset.
            </p><br>
        
            <h4>CONTACT INFORMATION</h4>
            <p>
                Questions: If you have any questions, concerns or complaints about this research, its procedures, risks and benefits, contact the Protocol Director, Nicholas Camp, npcamp@umich.edu, (443) 851-6783.
            </p>
        
            <p>
                If you have questions about your rights as a research participant, or wish to obtain information, ask questions or discuss any concerns about this study with someone other than the researcher(s), please contact the following:
                <br><br>
        
                University of Michigan<br>
                Health Sciences and Behavioral Sciences Institutional Review Board
                (IRB-HSBS)<br>
                2800 Plymouth Road <br>
                Building 520, Room 1169 <br>
                Ann Arbor, MI 48109-2800 <br>
                Telephone: 734-936-0933 or toll free (866) 936-0933 <br>
                Fax: 734-936-1852 <br />
                E-mail: irbhsbs@umich.edu <br>
            </p>
        
            <p>
                You can also contact the University of Michigan Compliance Hotline at 1-866-990-0111. You may also print this consent form to keep.
            </p>
            <br>
        
            <div class=""alert alert-warning""><b>
                Do you consent to participate in this study? If you consent to participate in this study, please click “Accept and continue.”
            </b></div>
            </div>
        </div>
    ","1","","","","","","","","","","","","","","","","","","","","","","","","","","","","",""
"browser-check","browser-check","2","24153","0.0-2.0-0.0","61220e0d654ac5a7f3f1d54f","625e209c10a247530e1c6964","625ee535573cebfc9240ed6c","8","","","","980","1990","true","chrome","100.0.4896","true","Android OS","true","60.48","true","true","","","","","","","","","","","","","","","","","",""
"","preload","3","25960","0.0-2.0-1.0","61220e0d654ac5a7f3f1d54f","625e209c10a247530e1c6964","625ee535573cebfc9240ed6c","8","","","","","","","","","","","","","","","true","false","[]","[]","[]","","","","","","","","","","","","",""
"instructions","html-button-response","4","44840","0.0-2.0-2.0","61220e0d654ac5a7f3f1d54f","625e209c10a247530e1c6964","625ee535573cebfc9240ed6c","8","18876","
        <div class=""text-container"">
            <h1>Welcome to the study!</h1>
            
            <div class=""text-left"">
                <p>
                    In this study, we are interested in how people think about different Google Street View images. Google Street View takes pictures of streets used for Google Earth and Google Maps. You’ll see Google Street View images of different places and answer some questions about each one.
                </p>
            </div>
            
            <img src='
            https://maps.googleapis.com/maps/api/streetview?size=640x320
            &location=37.783631,-122.432766
            &heading=80
            &pitch=2
            &fov=100
            &radius=150
            &key=AIzaSyC2OxRDg6qlzZDj7j0UAD2XyE0qWokLvvs
            &source=outdoor'>
        
            <br>
        <br>
    ","0","","","","","","","","","","","","","","","","","","","","","","","","","","","","",""
"instructions","html-button-response","5","75728","0.0-2.0-3.0","61220e0d654ac5a7f3f1d54f","625e209c10a247530e1c6964","625ee535573cebfc9240ed6c","8","30582","
        <style>
            img.small {
            max-width: 100px;
            }
            li {
            text-indent: 40px;
            }
        </style>

        <div class=""text-container text-left"">
            <p>For each picture, we’d like your impressions of the scene:</p>
            
            <hr>
                Are there <b>clear, distinct boundaries</b> between objects in the scene, or are the <b>boundaries ambiguous or unclear</b>?
                
                <li>clear, distinct boundaries: <img class=""small"" src=""assets/img/ambiguous-low.png""></li>
                <li>ambiguous or unclear boundaries: <img class=""small"" src=""assets/img/ambiguous-high.png""></li>
            <hr>
            <br>
                Are there <b>only a few different objects</b> in the scene, or is there <b>a large number</b>?
            <br><br>
            <hr>
                Are only <b>a few parts</b> of the scene <b>invisible or obscured</b>, or are <b>many parts invisible or obscured</b>?
                
                <li>a few parts invisible or obscured: <img class=""small"" src=""assets/img/invisible-low.png""></li>
                <li>many parts invisible or obscured: <img class=""small"" src=""assets/img/invisible-high.png""></li>
            <hr>
            <br>
                Does the scene look <b>organized</b> or <b>chaotic</b> to you?
            <br><br>
            <hr>
            
            <p>
                There are no right or wrong answers: we are interested in <b>your</b> impression. Note that some images might have individual buildings or faces blurred for privacy. Please ignore these when making your judgments.
            </p>
        </div>
        <br>
    ","0","","","","","","","","","","","","","","","","","","","","","","","","","","","","",""
"instructions","html-button-response","6","82155","0.0-2.0-4.0","61220e0d654ac5a7f3f1d54f","625e209c10a247530e1c6964","625ee535573cebfc9240ed6c","8","6423","
        <div class=""text-container text-left"">
            <p>Please make sure you are doing this study in an area where you can focus and complete the survey in one sitting.</p>

            <p>Don’t spend too much time on any one picture, and, again go with your gut impression!</p>
            
            <p>The study should take about 30 minutes. We’ll let you know when you’re halfway through.</p>
        </div>
            
        <h3>Ready? Click next to get started!</h3>
        <br>
    ","0","","","","","","","","","","","","","","","","","","","","","","","","","","","","",""
"trial","survey","7","127028","0.0-2.0-5.0","61220e0d654ac5a7f3f1d54f","625e209c10a247530e1c6964","625ee535573cebfc9240ed6c","8","44780","","{""P0_Q0"":null,""ambiguous"":3,""objects"":5,""invisible"":5,""chaos"":3}","","","","","","","","","","","","","","","","","[]","Chelsea House Victorian Inn","ChIJ1ap5tQHMPIgRXxz9M_-mKZc","42.3181667","-84.0196694","US","CHL","CHL","HTL","118 E Middle St, Chelsea, MI 48118, USA","us_chl_htl_a_high1","90","us_chl_htl_a_high1_90"
"trial","survey","8","148271","0.0-2.0-6.0","61220e0d654ac5a7f3f1d54f","625e209c10a247530e1c6964","625ee535573cebfc9240ed6c","8","21217","","{""P0_Q0"":null,""ambiguous"":5,""objects"":5,""invisible"":5,""chaos"":5}","","","","","","","","","","","","","","","","","[]","Nearby location of Hilton New York JFK Airport, NY (us_nyc-p_htl_a_mid2)","ChIJvcyCtx9nwokREAp7AP5NM9s","40.6672608","-73.7964601","US","NYC","PER","HTL","135-25 142nd St, Queens, NY 11436, USA","us_nyc-p_htl_b_mid2","180","us_nyc-p_htl_b_mid2_180"
"trial","survey","9","180517","0.0-2.0-7.0","61220e0d654ac5a7f3f1d54f","625e209c10a247530e1c6964","625ee535573cebfc9240ed6c","8","32225","","{""P0_Q0"":null,""ambiguous"":5,""objects"":5,""invisible"":5,""chaos"":5}","","","","","","","","","","","","","","","","","[]","Nearby location of United States Postal Service (us_nyc-c_pos_a_3)","ChIJpWHPQID2wokRneXgmeORzP4","40.8291253","-73.9375732","US","NYC","CTR","POS","2925 Frederick Douglass Blvd, New York, NY 10039, USA","us_nyc-c_pos_b_3","180","us_nyc-c_pos_b_3_180"
"trial","survey","10","213630","0.0-2.0-8.0","61220e0d654ac5a7f3f1d54f","625e209c10a247530e1c6964","625ee535573cebfc9240ed6c","8","33095","","{""P0_Q0"":null,""ambiguous"":2,""objects"":3,""invisible"":3,""chaos"":3}","","","","","","","","","","","","","","","","","[]","Nearby location of Kakezuka Elementary School (jp_tok-c_sch_a_4)","ChIJZ3Y9uRWLGGAR3VkcUPtDdr0","35.6430912","139.71302","JP","TOK","CTR","SCH","4 Chome-20 Ebisu, Shibuya City, Tokyo 150-0013, Japan","jp_tok-c_sch_b_4","180","jp_tok-c_sch_b_4_180"
"trial","survey","11","247711","0.0-2.0-9.0","61220e0d654ac5a7f3f1d54f","625e209c10a247530e1c6964","625ee535573cebfc9240ed6c","8","34061","","{""P0_Q0"":null,""ambiguous"":4,""objects"":3,""invisible"":3,""chaos"":3}","","","","","","","","","","","","","","","","","[]","台東小学校跡","ChIJPzL6D6mPGGAROc_ZDczQMBw","35.7231123","139.7860147","JP","TOK","CTR","SCH","3-chōme-1-30 Shitaya, Taito City, Tokyo 110-0004, Japan","jp_tok-c_sch_a_1","90","jp_tok-c_sch_a_1_90"
"trial","survey","12","273823","0.0-2.0-10.0","61220e0d654ac5a7f3f1d54f","625e209c10a247530e1c6964","625ee535573cebfc9240ed6c","8","26095","","{""P0_Q0"":null,""ambiguous"":3,""objects"":2,""invisible"":2,""chaos"":2}","","","","","","","","","","","","","","","","","[]","Nearby location of Quality Inn and Suites Ann Arbor Hwy 23 (us_arb_htl_a_mid2)","ChIJUf9k3i2vPIgRY6-MziLWsGc","42.25094","-83.682429","US","ARB","ARB","HTL","2525 Gross Rd, Ann Arbor, MI 48108, USA","us_arb_htl_b_mid2","0","us_arb_htl_b_mid2_0"
"trial","survey","13","301898","0.0-2.0-11.0","61220e0d654ac5a7f3f1d54f","625e209c10a247530e1c6964","625ee535573cebfc9240ed6c","8","28055","","{""P0_Q0"":null,""ambiguous"":1,""objects"":2,""invisible"":1,""chaos"":1}","","","","","","","","","","","","","","","","","[]","P.S. 020 John Bowne","ChIJReGEShFgwokRiwUXE2jYFz4","40.7583819","-73.8243949","US","NYC","PER","SCH","142-30 Barclay Ave, Queens, NY 11355, USA","us_nyc-p_sch_a_5","0","us_nyc-p_sch_a_5_0"
"trial","survey","14","323147","0.0-2.0-12.0","61220e0d654ac5a7f3f1d54f","625e209c10a247530e1c6964","625ee535573cebfc9240ed6c","8","21233","","{""P0_Q0"":null,""ambiguous"":2,""objects"":3,""invisible"":2,""chaos"":2}","","","","","","","","","","","","","","","","","[]","Aijitsu Elementary School","ChIJzR_MUXS7JhURN_tqq9sSdCs","35.699762","139.7340245","JP","TOK","CTR","SCH","26 Kitamachi, Shinjuku City, Tokyo 162-0834, Japan","jp_tok-c_sch_a_5","90","jp_tok-c_sch_a_5_90"
"trial","survey","15","354132","0.0-2.0-13.0","61220e0d654ac5a7f3f1d54f","625e209c10a247530e1c6964","625ee535573cebfc9240ed6c","8","30966","","{""P0_Q0"":null,""ambiguous"":2,""objects"":3,""invisible"":1,""chaos"":1}","","","","","","","","","","","","","","","","","[]","Nearby location of Adachi Asahicho Post Office (jp_tok-p_pos_a_4)","ChIJhXM9R1KOGGAR7zoOSZK_VIU","35.7480131","139.8100604","JP","TOK","PER","POS","Japan, 〒120-0026 Tokyo, Adachi City, Senjuasahichō, 22−９ コーポ山田","jp_tok-p_pos_b_4","0","jp_tok-p_pos_b_4_0"
"trial","survey","16","386112","0.0-2.0-14.0","61220e0d654ac5a7f3f1d54f","625e209c10a247530e1c6964","625ee535573cebfc9240ed6c","8","31964","","{""P0_Q0"":null,""ambiguous"":4,""objects"":1,""invisible"":4,""chaos"":4}","","","","","","","","","","","","","","","","","[]","Nearby location of 豊島区立朝日小学校 ひいらぎ学級 (jp_tok-c_sch_a_2)","ChIJsX5PhoGNGGARkg3BIt6IYKg","35.7421166","139.7340459","JP","TOK","CTR","SCH","4-chōme-57-10 Nishigahara, Kita City, Tokyo 114-0024, Japan","jp_tok-c_sch_b_2","0","jp_tok-c_sch_b_2_0"
"trial","survey","17","408177","0.0-2.0-15.0","61220e0d654ac5a7f3f1d54f","625e209c10a247530e1c6964","625ee535573cebfc9240ed6c","8","22048","","{""P0_Q0"":null,""ambiguous"":1,""objects"":1,""invisible"":1,""chaos"":1}","","","","","","","","","","","","","","","","","[]","Nearby location of Nihonbashi Elementary School (jp_tok-c_sch_a_7)","ChIJNS-5qVqJGGARajMXSGlTOSk","35.6833699","139.7826794","JP","TOK","CTR","SCH","1-chōme-15-9 Nihonbashikakigarachō, Chuo City, Tokyo 103-0014, Japan","jp_tok-c_sch_b_7","0","jp_tok-c_sch_b_7_0"
"trial","survey","18","431841","0.0-2.0-16.0","61220e0d654ac5a7f3f1d54f","625e209c10a247530e1c6964","625ee535573cebfc9240ed6c","8","23649","","{""P0_Q0"":null,""ambiguous"":1,""objects"":1,""invisible"":1,""chaos"":1}","","","","","","","","","","","","","","","","","[]","Marunouchi Center Bldg. Post Office","ChIJEXvU5PiLGGARr5EAERW7XhI","35.6836406","139.7655925","JP","TOK","CTR","POS","1-chōme-6-1 Marunouchi, Chiyoda City, Tokyo 100-0005, Japan","jp_tok-c_pos_a_8","90","jp_tok-c_pos_a_8_90"
"trial","survey","19","463648","0.0-2.0-17.0","61220e0d654ac5a7f3f1d54f","625e209c10a247530e1c6964","625ee535573cebfc9240ed6c","8","31788","","{""P0_Q0"":null,""ambiguous"":2,""objects"":4,""invisible"":2,""chaos"":2}","","","","","","","","","","","","","","","","","[]","Nearby location of Chelsea House Victorian Inn (us_chl_htl_a_high1)","ChIJrSMrxwHMPIgRw8h_aIwPHas","42.3194142","-84.0203567","US","CHL","CHL","HTL","310 N Main St Suite 202A, Chelsea, MI 48118, USA","us_chl_htl_b_high1","0","us_chl_htl_b_high1_0"
"trial","survey","20","487982","0.0-2.0-18.0","61220e0d654ac5a7f3f1d54f","625e209c10a247530e1c6964","625ee535573cebfc9240ed6c","8","24319","","{""P0_Q0"":null,""ambiguous"":2,""objects"":3,""invisible"":2,""chaos"":2}","","","","","","","","","","","","","","","","","[]","Nearby location of Aman Tokyo (jp_tok-c_htl_a_ultra1)","ChIJ5W6CKziLGGAR73lO8PA1mRk","35.6844083","139.7640849","JP","TOK","CTR","HTL","1-chōme-3-4 Marunouchi, Chiyoda City, Tokyo 100-0005, Japan","jp_tok-c_htl_b_ultra1","0","jp_tok-c_htl_b_ultra1_0"
"trial","survey","21","503473","0.0-2.0-19.0","61220e0d654ac5a7f3f1d54f","625e209c10a247530e1c6964","625ee535573cebfc9240ed6c","8","15472","","{""P0_Q0"":null,""ambiguous"":1,""objects"":1,""invisible"":1,""chaos"":1}","","","","","","","","","","","","","","","","","[]","Nearby location of Kirihara Higashi Elementary School (jp_hik_sch_a_2)","ChIJ44W9Gy96AWARDa0LDoFiGi8","35.1236331","136.0869352","JP","HIK","HIK","SCH","1379 Tsuchidachō, Omihachiman, Shiga 523-0082, Japan","jp_hik_sch_b_2","90","jp_hik_sch_b_2_90"
"trial","survey","22","534198","0.0-2.0-20.0","61220e0d654ac5a7f3f1d54f","625e209c10a247530e1c6964","625ee535573cebfc9240ed6c","8","30711","","{""P0_Q0"":null,""ambiguous"":2,""objects"":3,""invisible"":2,""chaos"":2}","","","","","","","","","","","","","","","","","[]","Nearby location of United States Postal Service (us_nyc-p_pos_a_4)","ChIJQdQ0qElawokRA-jOMdpWwLc","40.6945583","-73.9912686","US","NYC","PER","POS","154 Pierrepont St, Brooklyn, NY 11201, USA","us_nyc-p_pos_b_4","270","us_nyc-p_pos_b_4_270"
"trial","survey","23","562336","0.0-2.0-21.0","61220e0d654ac5a7f3f1d54f","625e209c10a247530e1c6964","625ee535573cebfc9240ed6c","8","28108","","{""P0_Q0"":null,""ambiguous"":2,""objects"":2,""invisible"":2,""chaos"":2}","","","","","","","","","","","","","","","","","[]","Nearby location of The Baltic House (us_nyc-p_htl_a_mid1)","ChIJz1earlRawokRerP6Itd2JDg","40.6806771","-73.9836973","US","NYC","PER","HTL","175 3rd Ave, Brooklyn, NY 11217, USA","us_nyc-p_htl_b_mid1","270","us_nyc-p_htl_b_mid1_270"
"trial","survey","24","583339","0.0-2.0-22.0","61220e0d654ac5a7f3f1d54f","625e209c10a247530e1c6964","625ee535573cebfc9240ed6c","8","20985","","{""P0_Q0"":null,""ambiguous"":2,""objects"":4,""invisible"":2,""chaos"":2}","","","","","","","","","","","","","","","","","[]","Katsushika Higashishinkoiwa Post Office","ChIJRa6FOAeGGGAR0DyxE6La1Zw","35.7226708","139.8606781","JP","TOK","PER","POS","Japan, 〒124-0023 Tokyo, Katsushika City, Higashishinkoiwa, 3-chōme−11−１１−５ 葛飾東新小岩郵便局","jp_tok-p_pos_a_6","180","jp_tok-p_pos_a_6_180"
"trial","survey","25","606648","0.0-2.0-23.0","61220e0d654ac5a7f3f1d54f","625e209c10a247530e1c6964","625ee535573cebfc9240ed6c","8","23291","","{""P0_Q0"":null,""ambiguous"":2,""objects"":3,""invisible"":2,""chaos"":2}","","","","","","","","","","","","","","","","","[]","Courtyard by Marriott New York Manhattan Fifth Avenue","CYNYCESC","40.75211","-73.98141","US","NYC","CTR","HTL","3 EAST 40TH ST, NEW YORK, NY 10016","us_nyc-c_htl_a_mid2","270","us_nyc-c_htl_a_mid2_270"
"trial","survey","26","632266","0.0-2.0-24.0","61220e0d654ac5a7f3f1d54f","625e209c10a247530e1c6964","625ee535573cebfc9240ed6c","8","25602","","{""P0_Q0"":null,""ambiguous"":1,""objects"":3,""invisible"":2,""chaos"":2}","","","","","","","","","","","","","","","","","[]","Nearby location of South Meadows Elementary School (us_chl_sch_a_1)","ChIJFQ7Lva7OPIgR_c0d98fxzFI","42.3109393","-84.0229592","US","CHL","CHL","SCH","511 Maywood St, Chelsea, MI 48118, USA","us_chl_sch_b_1","180","us_chl_sch_b_1_180"
"trial","survey","27","647423","0.0-2.0-25.0","61220e0d654ac5a7f3f1d54f","625e209c10a247530e1c6964","625ee535573cebfc9240ed6c","8","15139","","{""P0_Q0"":null,""ambiguous"":1,""objects"":1,""invisible"":1,""chaos"":1}","","","","","","","","","","","","","","","","","[]","Math, Language and Art Elementary Math Algebra I & II Geometry PreCalculus Calculus College Math Data Analysis","ChIJt2b18g9gwokRk8pPfW8GOkc","40.762569","-73.8314318","US","NYC","PER","SCH","123 Main St, Flushing, NY 11354, USA","us_nyc-p_sch_a_2","270","us_nyc-p_sch_a_2_270"
"trial","survey","28","661250","0.0-2.0-26.0","61220e0d654ac5a7f3f1d54f","625e209c10a247530e1c6964","625ee535573cebfc9240ed6c","8","13811","","{""P0_Q0"":null,""ambiguous"":1,""objects"":1,""invisible"":1,""chaos"":1}","","","","","","","","","","","","","","","","","[]","Nearby location of Ōmori Bellport Post Office (jp_hik_pos_a_2)","ChIJ7Ywa2cxhGGARziYl93kj-_E","35.5874802","139.7328359","JP","HIK","HIK","POS","3-chōme-35-8 Minamiōi, Shinagawa City, Tokyo 140-0013, Japan","jp_hik_pos_b_2","90","jp_hik_pos_b_2_90"
"trial","survey","29","695593","0.0-2.0-27.0","61220e0d654ac5a7f3f1d54f","625e209c10a247530e1c6964","625ee535573cebfc9240ed6c","8","34324","","{""P0_Q0"":null,""ambiguous"":2,""objects"":2,""invisible"":2,""chaos"":2}","","","","","","","","","","","","","","","","","[]","Nearby location of Sandy Hook CenTer (us_nyc-c_sch_a_4)","ChIJVVVgOJFZwokRN9n4QjPq_Dc","40.731952","-73.999183","US","NYC","CTR","SCH","31 Washington Square W, New York, NY 10011, USA","us_nyc-c_sch_b_4","180","us_nyc-c_sch_b_4_180"
"trial","survey","30","711794","0.0-2.0-28.0","61220e0d654ac5a7f3f1d54f","625e209c10a247530e1c6964","625ee535573cebfc9240ed6c","8","16186","","{""P0_Q0"":null,""ambiguous"":1,""objects"":1,""invisible"":1,""chaos"":1}","","","","","","","","","","","","","","","","","[]","Nearby location of Best Western Plus Arena Hotel (us_nyc-p_htl_a_low1)","ChIJszayzJpbwokR1Pc20klCR2Y","40.679297","-73.947757","US","NYC","PER","HTL","170 Herkimer St, Brooklyn, NY 11216, USA","us_nyc-p_htl_b_low1","180","us_nyc-p_htl_b_low1_180"
"trial","survey","31","722846","0.0-2.0-29.0","61220e0d654ac5a7f3f1d54f","625e209c10a247530e1c6964","625ee535573cebfc9240ed6c","8","11035","","{""P0_Q0"":null,""ambiguous"":1,""objects"":1,""invisible"":1,""chaos"":1}","","","","","","","","","","","","","","","","","[]","Nearby location of 3rd Haketa Elementary School (jp_tok-p_sch_a_1)","ChIJj82HZcOPGGARdlxKpMVK0K8","35.7349985","139.787222","JP","TOK","PER","SCH","Japan, 〒116-0002 Tokyo, Arakawa City, Arakawa, 1-chōme−26−１ ＮＴＴ ビル 本館1階","jp_tok-p_sch_b_1","270","jp_tok-p_sch_b_1_270"
"trial","survey","32","731443","0.0-2.0-30.0","61220e0d654ac5a7f3f1d54f","625e209c10a247530e1c6964","625ee535573cebfc9240ed6c","8","8583","","{""P0_Q0"":null,""ambiguous"":1,""objects"":1,""invisible"":1,""chaos"":1}","","","","","","","","","","","","","","","","","[]","Nearby location of USPS Bayside Carrier Annex (us_nyc-p_pos_a_1)","ChIJj8ldGeJhwokRyuFg0UTPpzA","40.762488","-73.7649895","US","NYC","PER","POS","217-03 43rd Ave, Queens, NY 11361, USA","us_nyc-p_pos_b_1","90","us_nyc-p_pos_b_1_90"
"trial","survey","33","753615","0.0-2.0-31.0","61220e0d654ac5a7f3f1d54f","625e209c10a247530e1c6964","625ee535573cebfc9240ed6c","8","22154","","{""P0_Q0"":null,""ambiguous"":2,""objects"":2,""invisible"":2,""chaos"":2}","","","","","","","","","","","","","","","","","[]","Nearby location of Sandy Hook CenTer (us_nyc-c_sch_a_4)","ChIJVVVgOJFZwokRN9n4QjPq_Dc","40.731952","-73.999183","US","NYC","CTR","SCH","31 Washington Square W, New York, NY 10011, USA","us_nyc-c_sch_b_4","0","us_nyc-c_sch_b_4_0"
"trial","survey","34","776873","0.0-2.0-32.0","61220e0d654ac5a7f3f1d54f","625e209c10a247530e1c6964","625ee535573cebfc9240ed6c","8","23243","","{""P0_Q0"":null,""ambiguous"":3,""objects"":3,""invisible"":3,""chaos"":3}","","","","","","","","","","","","","","","","","[]","Mercer Hotel","WVNYCMER","40.72603","-73.99856","US","NYC","CTR","HTL","147 MERCER STREET , NEW YORK, NY 10012","us_nyc-c_htl_a_ultra2","0","us_nyc-c_htl_a_ultra2_0"
"trial","survey","35","806945","0.0-2.0-33.0","61220e0d654ac5a7f3f1d54f","625e209c10a247530e1c6964","625ee535573cebfc9240ed6c","8","30055","","{""P0_Q0"":null,""ambiguous"":2,""objects"":2,""invisible"":2,""chaos"":2}","","","","","","","","","","","","","","","","","[]","Nearby location of Hikoneatohoteru (jp_hik_htl_a_low1)","ChIJc83wWVfUA2ARvLpBq3jM4k4","35.2381105","136.2567336","JP","HIK","HIK","HTL","Green Hill Takamiya Park, 1780 Takamiyachō, Hikone, Shiga 522-0201, Japan","jp_hik_htl_b_low1","180","jp_hik_htl_b_low1_180"
"trial","survey","36","840434","0.0-2.0-34.0","61220e0d654ac5a7f3f1d54f","625e209c10a247530e1c6964","625ee535573cebfc9240ed6c","8","33473","","{""P0_Q0"":null,""ambiguous"":2,""objects"":3,""invisible"":4,""chaos"":3}","","","","","","","","","","","","","","","","","[]","Nearby location of William O'Shea Campus (us_nyc-c_sch_a_6)","ChIJpefuOY9YwokR-Pk3vGiQNI4","40.7819913","-73.9762638","US","NYC","CTR","SCH","118 W 79th St, New York, NY 10024, USA","us_nyc-c_sch_b_6","90","us_nyc-c_sch_b_6_90"
"trial","survey","37","871101","0.0-2.0-35.0","61220e0d654ac5a7f3f1d54f","625e209c10a247530e1c6964","625ee535573cebfc9240ed6c","8","30649","","{""P0_Q0"":null,""ambiguous"":2,""objects"":2,""invisible"":4,""chaos"":4}","","","","","","","","","","","","","","","","","[]","Nearby location of Bunkyo Otsuka 3 Post Office (jp_tok-c_pos_a_7)","ChIJ8yJGd6-NGGARH10utNOusFo","35.7205268","139.7394333","JP","TOK","CTR","POS","3-chōme-35-1 Ōtsuka, Bunkyo City, Tokyo 112-0012, Japan","jp_tok-c_pos_b_7","270","jp_tok-c_pos_b_7_270"
"trial","survey","38","885889","0.0-2.0-36.0","61220e0d654ac5a7f3f1d54f","625e209c10a247530e1c6964","625ee535573cebfc9240ed6c","8","14773","","{""P0_Q0"":null,""ambiguous"":1,""objects"":1,""invisible"":1,""chaos"":1}","","","","","","","","","","","","","","","","","[]","Nearby location of Courtyard by Marriott New York Manhattan Fifth Avenue (us_nyc-c_htl_a_mid2)","ChIJ5Yg_sQBZwokRHhiGwRT771k","40.750592","-73.982198","US","NYC","CTR","HTL","6 E 38th St, New York, NY 10016, USA","us_nyc-c_htl_b_mid2","180","us_nyc-c_htl_b_mid2_180"
"trial","survey","39","895332","0.0-2.0-37.0","61220e0d654ac5a7f3f1d54f","625e209c10a247530e1c6964","625ee535573cebfc9240ed6c","8","9426","","{""P0_Q0"":null,""ambiguous"":1,""objects"":1,""invisible"":1,""chaos"":1}","","","","","","","","","","","","","","","","","[]","United States Postal Service","ChIJQ1Dpq1hYwokRhUTtnxqbRIw","40.7696441","-73.9833283","US","NYC","CTR","POS","27 W 60th St, New York, NY 10023, USA","us_nyc-c_pos_a_6","0","us_nyc-c_pos_a_6_0"
"trial","survey","40","915397","0.0-2.0-38.0","61220e0d654ac5a7f3f1d54f","625e209c10a247530e1c6964","625ee535573cebfc9240ed6c","8","20048","","{""P0_Q0"":null,""ambiguous"":2,""objects"":2,""invisible"":3,""chaos"":2}","","","","","","","","","","","","","","","","","[]","Chelsea House Victorian Inn","ChIJ1ap5tQHMPIgRXxz9M_-mKZc","42.3181667","-84.0196694","US","CHL","CHL","HTL","118 E Middle St, Chelsea, MI 48118, USA","us_chl_htl_a_high1","270","us_chl_htl_a_high1_270"
"trial","survey","41","938981","0.0-2.0-39.0","61220e0d654ac5a7f3f1d54f","625e209c10a247530e1c6964","625ee535573cebfc9240ed6c","8","23562","","{""P0_Q0"":null,""ambiguous"":1,""objects"":1,""invisible"":2,""chaos"":2}","","","","","","","","","","","","","","","","","[]","Nearby location of P.S. 020 John Bowne (us_nyc-p_sch_a_5)","ChIJ-7aNoRZgwokRFC2hF6Idg2E","40.7572054","-73.8229217","US","NYC","PER","SCH","14231 Franklin Ave, Queens, NY 11355, USA","us_nyc-p_sch_b_5","0","us_nyc-p_sch_b_5_0"
"attention-check","survey","42","944041","0.0-2.0-40.0","61220e0d654ac5a7f3f1d54f","625e209c10a247530e1c6964","625ee535573cebfc9240ed6c","8","5044","","{""P0_Q0"":null,""ambiguous"":null,""objects"":null,""invisible"":null,""chaos"":null}","","","","","","","","","","","","","","","","","[]","","","","","","","","","","","",""
"half-way","html-button-response","43","959803","0.0-2.0-41.0","61220e0d654ac5a7f3f1d54f","625e209c10a247530e1c6964","625ee535573cebfc9240ed6c","8","null","
            <h3>You are now half way through the study.</h3>
            <p>Please take a quick, 15-second break before you continue.</p>
            <img src='assets/img/countdown-15.gif'>
            <p>The study will automatically advance forward after the countdown is complete. However, you may click ""Next"" to advance forward now if you wish.</p>
        ","null","","","","","","","","","","","","","","","","","","","","","","","","","","","","",""
"trial","survey","44","973925","0.0-2.0-42.0","61220e0d654ac5a7f3f1d54f","625e209c10a247530e1c6964","625ee535573cebfc9240ed6c","8","14051","","{""P0_Q0"":null,""ambiguous"":1,""objects"":1,""invisible"":1,""chaos"":1}","","","","","","","","","","","","","","","","","[]","Nearby location of South Meadows Elementary School (us_chl_sch_a_1)","ChIJFQ7Lva7OPIgR_c0d98fxzFI","42.3109393","-84.0229592","US","CHL","CHL","SCH","511 Maywood St, Chelsea, MI 48118, USA","us_chl_sch_b_1","90","us_chl_sch_b_1_90"
"trial","survey","45","999227","0.0-2.0-43.0","61220e0d654ac5a7f3f1d54f","625e209c10a247530e1c6964","625ee535573cebfc9240ed6c","8","25277","","{""P0_Q0"":null,""ambiguous"":2,""objects"":3,""invisible"":4,""chaos"":3}","","","","","","","","","","","","","","","","","[]","Nearby location of Aijitsu Elementary School (jp_tok-c_sch_a_5)","ChIJn0gJcliMGGARx62E3ARcjRI","35.6987116","139.7326211","JP","TOK","CTR","SCH","2-8 Saikumachi, Shinjuku City, Tokyo 162-0838, Japan","jp_tok-c_sch_b_5","0","jp_tok-c_sch_b_5_0"
"trial","survey","46","1018623","0.0-2.0-44.0","61220e0d654ac5a7f3f1d54f","625e209c10a247530e1c6964","625ee535573cebfc9240ed6c","8","19377","","{""P0_Q0"":null,""ambiguous"":1,""objects"":2,""invisible"":1,""chaos"":1}","","","","","","","","","","","","","","","","","[]","Hikoneatohoteru","ChIJcSdJDVfUA2ARZ1X1w0kURVw","35.2392938","136.255227","JP","HIK","HIK","HTL","1707-1 Takamiyachō, Hikone, Shiga 522-0201, Japan","jp_hik_htl_a_low1","180","jp_hik_htl_a_low1_180"
"trial","survey","47","1039230","0.0-2.0-45.0","61220e0d654ac5a7f3f1d54f","625e209c10a247530e1c6964","625ee535573cebfc9240ed6c","8","20592","","{""P0_Q0"":null,""ambiguous"":1,""objects"":1,""invisible"":1,""chaos"":1}","","","","","","","","","","","","","","","","","[]","P.S. 153 Adam Clayton Powell","ChIJzzGA13z2wokRATSY11DeEH8","40.826491","-73.9475211","US","NYC","CTR","SCH","1750 Amsterdam Ave, New York, NY 10031, USA","us_nyc-c_sch_a_3","0","us_nyc-c_sch_a_3_0"
"trial","survey","48","1066874","0.0-2.0-46.0","61220e0d654ac5a7f3f1d54f","625e209c10a247530e1c6964","625ee535573cebfc9240ed6c","8","27626","","{""P0_Q0"":null,""ambiguous"":3,""objects"":2,""invisible"":2,""chaos"":3}","","","","","","","","","","","","","","","","","[]","Kirihara Higashi Elementary School","ChIJpavbTi56AWARRkSsYgXqutM","35.122484","136.087719","JP","HIK","HIK","SCH","175 Tsuchidachō, Omihachiman, Shiga 523-0082, Japan","jp_hik_sch_a_2","0","jp_hik_sch_a_2_0"
"trial","survey","49","1080942","0.0-2.0-47.0","61220e0d654ac5a7f3f1d54f","625e209c10a247530e1c6964","625ee535573cebfc9240ed6c","8","14052","","{""P0_Q0"":null,""ambiguous"":null,""objects"":null,""invisible"":null,""chaos"":null}","","","","","","","","","","","","","","","","","[]","Nearby location of Multicultural Academy (us_arb_sch_a_3)","ChIJ-d4ve5SlPIgRkuG2a85xlZo","42.2058484","-83.701771","US","ARB","ARB","SCH","2866 Glen Creek Dr, Ann Arbor, MI 48108, USA","us_arb_sch_b_3","90","us_arb_sch_b_3_90"
"trial","survey","50","1101536","0.0-2.0-48.0","61220e0d654ac5a7f3f1d54f","625e209c10a247530e1c6964","625ee535573cebfc9240ed6c","8","20578","","{""P0_Q0"":null,""ambiguous"":1,""objects"":2,""invisible"":2,""chaos"":1}","","","","","","","","","","","","","","","","","[]","Hotel Route-Inn Nagahama Inter","ChIJmQLsstAuAmARAC8tYd9WWwc","35.3970578","136.2947216","JP","TOR","TOR","HTL","Japan, 〒526-0804 Shiga, Nagahama, Kanōchō, 字上角田884-1","jp_tor_htl_a_low1","180","jp_tor_htl_a_low1_180"
"trial","survey","51","1125730","0.0-2.0-49.0","61220e0d654ac5a7f3f1d54f","625e209c10a247530e1c6964","625ee535573cebfc9240ed6c","8","24175","","{""P0_Q0"":null,""ambiguous"":5,""objects"":3,""invisible"":5,""chaos"":5}","","","","","","","","","","","","","","","","","[]","長浜BGホテル","ChIJybhHhispAmARj0lscxsbskI","35.391991","136.282838","JP","TOR","TOR","HTL","300 Kawasakichō, Nagahama, Shiga 526-0846, Japan","jp_tor_htl_a_mid1","270","jp_tor_htl_a_mid1_270"
"trial","survey","52","1145550","0.0-2.0-50.0","61220e0d654ac5a7f3f1d54f","625e209c10a247530e1c6964","625ee535573cebfc9240ed6c","8","19802","","{""P0_Q0"":null,""ambiguous"":2,""objects"":2,""invisible"":2,""chaos"":2}","","","","","","","","","","","","","","","","","[]","Nearby location of Mitchell Elementary School (us_arb_sch_a_4)","ChIJs-axekGvPIgRBvxYNOm48Hc","42.2361096","-83.6952309","US","ARB","ARB","SCH","3318 Williamsburg Rd, Ann Arbor, MI 48108, USA","us_arb_sch_b_4","270","us_arb_sch_b_4_270"
"trial","survey","53","1170523","0.0-2.0-51.0","61220e0d654ac5a7f3f1d54f","625e209c10a247530e1c6964","625ee535573cebfc9240ed6c","8","24957","","{""P0_Q0"":null,""ambiguous"":2,""objects"":2,""invisible"":1,""chaos"":1}","","","","","","","","","","","","","","","","","[]","The Hoxton Williamsburg","WVNYC801","40.7207","-73.95876","US","NYC","PER","HTL","97 WYTHE AVENUE, NEW YORK, NY 11249","us_nyc-p_htl_a_high2","180","us_nyc-p_htl_a_high2_180"
"trial","survey","54","1191592","0.0-2.0-52.0","61220e0d654ac5a7f3f1d54f","625e209c10a247530e1c6964","625ee535573cebfc9240ed6c","8","21051","","{""P0_Q0"":null,""ambiguous"":5,""objects"":1,""invisible"":5,""chaos"":5}","","","","","","","","","","","","","","","","","[]","Jonan Daini Elementary School","ChIJOzDZZm6KGGARfmI0vkKc_Kw","35.6154264","139.7461583","JP","TOK","PER","SCH","3-chōme-4-5 Higashishinagawa, Shinagawa City, Tokyo 140-0002, Japan","jp_tok-p_sch_a_5","0","jp_tok-p_sch_a_5_0"
"trial","survey","55","1216888","0.0-2.0-53.0","61220e0d654ac5a7f3f1d54f","625e209c10a247530e1c6964","625ee535573cebfc9240ed6c","8","25280","","{""P0_Q0"":null,""ambiguous"":3,""objects"":3,""invisible"":3,""chaos"":3}","","","","","","","","","","","","","","","","","[]","Nearby location of Ōmori Bellport Post Office (jp_hik_pos_a_2)","ChIJ7Ywa2cxhGGARziYl93kj-_E","35.5874802","139.7328359","JP","HIK","HIK","POS","3-chōme-35-8 Minamiōi, Shinagawa City, Tokyo 140-0013, Japan","jp_hik_pos_b_2","0","jp_hik_pos_b_2_0"
"trial","survey","56","1235788","0.0-2.0-54.0","61220e0d654ac5a7f3f1d54f","625e209c10a247530e1c6964","625ee535573cebfc9240ed6c","8","18882","","{""P0_Q0"":null,""ambiguous"":2,""objects"":3,""invisible"":3,""chaos"":3}","","","","","","","","","","","","","","","","","[]","United States Postal Service","ChIJt9iTcDz2wokR8BrJr4TbjWQ","40.8049683","-73.9649034","US","NYC","CTR","POS","534 W 112th St, New York, NY 10025, USA","us_nyc-c_pos_a_2","90","us_nyc-c_pos_a_2_90"
"trial","survey","57","1264910","0.0-2.0-55.0","61220e0d654ac5a7f3f1d54f","625e209c10a247530e1c6964","625ee535573cebfc9240ed6c","8","29106","","{""P0_Q0"":null,""ambiguous"":3,""objects"":4,""invisible"":4,""chaos"":2}","","","","","","","","","","","","","","","","","[]","Yotsuya Station Post Office","ChIJM8cHVYqMGGARUz2wtp-skCo","35.6875819","139.7296034","JP","TOK","CTR","POS","Japan, 〒160-0004 Tokyo, Shinjuku City, Yotsuya, 1-chōme−６−１","jp_tok-c_pos_a_3","0","jp_tok-c_pos_a_3_0"
"trial","survey","58","1274594","0.0-2.0-56.0","61220e0d654ac5a7f3f1d54f","625e209c10a247530e1c6964","625ee535573cebfc9240ed6c","8","9665","","{""P0_Q0"":null,""ambiguous"":1,""objects"":1,""invisible"":1,""chaos"":1}","","","","","","","","","","","","","","","","","[]","Hilton New York JFK Airport, NY","HHJFK153","40.66771","-73.79584","US","NYC","PER","HTL","144 02 135TH AVENUE, JAMAICA, NY 11436","us_nyc-p_htl_a_mid2","180","us_nyc-p_htl_a_mid2_180"
"trial","survey","59","1281647","0.0-2.0-57.0","61220e0d654ac5a7f3f1d54f","625e209c10a247530e1c6964","625ee535573cebfc9240ed6c","8","7037","","{""P0_Q0"":null,""ambiguous"":2,""objects"":2,""invisible"":2,""chaos"":2}","","","","","","","","","","","","","","","","","[]","Nearby location of Tsukishima 2nd Elementary School (jp_tok-c_sch_a_3)","ChIJHxLhHn2JGGARc3bs4ikCKls","35.660785","139.775206","JP","TOK","CTR","SCH","1-chōme-13-13-1 Kachidoki, Chuo City, Tokyo 104-0054, Japan","jp_tok-c_sch_b_3","270","jp_tok-c_sch_b_3_270"
"trial","survey","60","1291901","0.0-2.0-58.0","61220e0d654ac5a7f3f1d54f","625e209c10a247530e1c6964","625ee535573cebfc9240ed6c","8","10237","","{""P0_Q0"":null,""ambiguous"":1,""objects"":1,""invisible"":1,""chaos"":1}","","","","","","","","","","","","","","","","","[]","Nearby location of Kanponoyado Hikone (jp_hik_htl_a_mid1)","ChIJ52LxtyYrAmARRzLfR851uZY","35.2879027","136.2510942","JP","HIK","HIK","HTL","1090 Matsubarachō, Hikone, Shiga 522-0002, Japan","jp_hik_htl_b_mid1","180","jp_hik_htl_b_mid1_180"
"trial","survey","61","1319131","0.0-2.0-59.0","61220e0d654ac5a7f3f1d54f","625e209c10a247530e1c6964","625ee535573cebfc9240ed6c","8","27214","","{""P0_Q0"":null,""ambiguous"":2,""objects"":1,""invisible"":1,""chaos"":1}","","","","","","","","","","","","","","","","","[]","Jittered SV for The Tokyo Station Hotel (jp_tok-c_htl_a_high2)","ChIJC3Cf2PuLGGAROO00ukl8JwA","35.6812362","139.7671248","JP","TOK","CTR","HTL","Tokyo Station, 1-chōme-9 Marunouchi, Chiyoda City, Tokyo 100-0005, Japan","jp_tok-c_htl_a_high2","0","jp_tok-c_htl_a_high2_0"
"trial","survey","62","1342921","0.0-2.0-60.0","61220e0d654ac5a7f3f1d54f","625e209c10a247530e1c6964","625ee535573cebfc9240ed6c","8","23769","","{""P0_Q0"":null,""ambiguous"":2,""objects"":4,""invisible"":4,""chaos"":3}","","","","","","","","","","","","","","","","","[]","Nearby location of Mandarin Oriental New York (us_nyc-c_htl_a_ultra1)","ChIJDTV9gfVYwokR4yg_rfSKw3M","40.7700712","-73.9843251","US","NYC","CTR","HTL","77 Columbus Ave, New York, NY 10023, USA","us_nyc-c_htl_b_ultra1","270","us_nyc-c_htl_b_ultra1_270"
"trial","survey","63","1352748","0.0-2.0-61.0","61220e0d654ac5a7f3f1d54f","625e209c10a247530e1c6964","625ee535573cebfc9240ed6c","8","9811","","{""P0_Q0"":null,""ambiguous"":1,""objects"":1,""invisible"":1,""chaos"":1}","","","","","","","","","","","","","","","","","[]","Nearby location of Jonan Daini Elementary School (jp_tok-p_sch_a_5)","ChIJ2To8y2-KGGARuI3U_BCg3Sg","35.614051","139.744792","JP","TOK","PER","SCH","2-chōme-15-6 Minamishinagawa, Shinagawa City, Tokyo 140-0004, Japan","jp_tok-p_sch_b_5","90","jp_tok-p_sch_b_5_90"
"trial","survey","64","1369896","0.0-2.0-62.0","61220e0d654ac5a7f3f1d54f","625e209c10a247530e1c6964","625ee535573cebfc9240ed6c","8","17130","","{""P0_Q0"":null,""ambiguous"":1,""objects"":1,""invisible"":1,""chaos"":1}","","","","","","","","","","","","","","","","","[]","Nearby location of United States Postal Service (us_arb_pos_a_3)","GhIJwCSVKeYbRUARAUenU8PnVMA","42.2179615","-83.6212968","US","ARB","ARB","POS","699H+5F Ypsilanti Charter Township, MI, USA","us_arb_pos_b_3","180","us_arb_pos_b_3_180"
"trial","survey","65","1379481","0.0-2.0-63.0","61220e0d654ac5a7f3f1d54f","625e209c10a247530e1c6964","625ee535573cebfc9240ed6c","8","9568","","{""P0_Q0"":null,""ambiguous"":1,""objects"":1,""invisible"":1,""chaos"":1}","","","","","","","","","","","","","","","","","[]","Nearby location of P.S. 153 Adam Clayton Powell (us_nyc-c_sch_a_3)","ChIJ37jL5mL2wokRoeoE0seWQ44","40.8276038","-73.9486798","US","NYC","CTR","SCH","547 W 147th St, New York, NY 10031, USA","us_nyc-c_sch_b_3","0","us_nyc-c_sch_b_3_0"
"trial","survey","66","1398270","0.0-2.0-64.0","61220e0d654ac5a7f3f1d54f","625e209c10a247530e1c6964","625ee535573cebfc9240ed6c","8","18771","","{""P0_Q0"":null,""ambiguous"":4,""objects"":2,""invisible"":4,""chaos"":4}","","","","","","","","","","","","","","","","","[]","Nearby location of Tokyo Marriott Hotel (jp_tok-p_htl_a_high1)","ChIJsyQuX16KGGARNJl4U-sZQG0","35.620812","139.7355647","JP","TOK","PER","HTL","Japan, 〒140-0001 Tokyo, Shinagawa City, Kitashinagawa, 4-chōme−6−１７ セレソ御殿山","jp_tok-p_htl_b_high1","90","jp_tok-p_htl_b_high1_90"
"trial","survey","67","1408147","0.0-2.0-65.0","61220e0d654ac5a7f3f1d54f","625e209c10a247530e1c6964","625ee535573cebfc9240ed6c","8","9861","","{""P0_Q0"":null,""ambiguous"":1,""objects"":1,""invisible"":1,""chaos"":1}","","","","","","","","","","","","","","","","","[]","United States Postal Service","ChIJbSwe0opYwokRPnmsjLkkilA","40.8276833","-73.9365073","US","NYC","CTR","POS","99 Macombs Pl, New York, NY 10039, USA","us_nyc-c_pos_a_3","180","us_nyc-c_pos_a_3_180"
"trial","survey","68","1415542","0.0-2.0-66.0","61220e0d654ac5a7f3f1d54f","625e209c10a247530e1c6964","625ee535573cebfc9240ed6c","8","7378","","{""P0_Q0"":null,""ambiguous"":1,""objects"":1,""invisible"":1,""chaos"":1}","","","","","","","","","","","","","","","","","[]","Nearby location of Fairfield Inn and Suites by Marriott New York Manhattan Times Square (us_nyc-c_htl_a_mid1)","ChIJt_ncpFJYwokRykJpalw_bYU","40.7575246","-73.994055","US","NYC","CTR","HTL","405 W 40th St, New York, NY 10018, USA","us_nyc-c_htl_b_mid1","180","us_nyc-c_htl_b_mid1_180"
"trial","survey","69","1439938","0.0-2.0-67.0","61220e0d654ac5a7f3f1d54f","625e209c10a247530e1c6964","625ee535573cebfc9240ed6c","8","24380","","{""P0_Q0"":null,""ambiguous"":3,""objects"":1,""invisible"":3,""chaos"":3}","","","","","","","","","","","","","","","","","[]","United States Postal Service","ChIJRxSbQ7LOPIgRxY-tEHFOePE","42.3058978","-84.0197951","US","CHL","CHL","POS","1101 S Main St Ste 100, Chelsea, MI 48118, USA","us_chl_pos_a_1","0","us_chl_pos_a_1_0"
"trial","survey","70","1459873","0.0-2.0-68.0","61220e0d654ac5a7f3f1d54f","625e209c10a247530e1c6964","625ee535573cebfc9240ed6c","8","19917","","{""P0_Q0"":null,""ambiguous"":4,""objects"":4,""invisible"":4,""chaos"":4}","","","","","","","","","","","","","","","","","[]","Nearby location of United States Postal Service (us_nyc-c_pos_a_2)","ChIJtTVWPTz2wokR67Bcx4reZLs","40.8061808","-73.963843","US","NYC","CTR","POS","540 W 114th St, New York, NY 10025, USA","us_nyc-c_pos_b_2","90","us_nyc-c_pos_b_2_90"
"trial","survey","71","1470698","0.0-2.0-69.0","61220e0d654ac5a7f3f1d54f","625e209c10a247530e1c6964","625ee535573cebfc9240ed6c","8","10809","","{""P0_Q0"":null,""ambiguous"":1,""objects"":1,""invisible"":1,""chaos"":1}","","","","","","","","","","","","","","","","","[]","Torahime Post Office","ChIJAzu1m54oAmARzqXxALkD3FY","35.4195711","136.2622481","JP","TOR","TOR","POS","160-5 Gomura, Nagahama, Shiga 529-0141, Japan","jp_tor_pos_a_1","90","jp_tor_pos_a_1_90"
"trial","survey","72","1489736","0.0-2.0-70.0","61220e0d654ac5a7f3f1d54f","625e209c10a247530e1c6964","625ee535573cebfc9240ed6c","8","19021","","{""P0_Q0"":null,""ambiguous"":2,""objects"":3,""invisible"":4,""chaos"":2}","","","","","","","","","","","","","","","","","[]","Nearby location of Hotel JAL City Tokyo Toyosu (jp_tok-p_htl_a_mid1)","ChIJhxfMYB-JGGARzU1jFMgKRZ8","35.684968","139.8100484","JP","TOK","PER","HTL","1-chōme-1-7 Sarue, Koto City, Tokyo 135-0003, Japan","jp_tok-p_htl_b_mid1","0","jp_tok-p_htl_b_mid1_0"
"trial","survey","73","1515394","0.0-2.0-71.0","61220e0d654ac5a7f3f1d54f","625e209c10a247530e1c6964","625ee535573cebfc9240ed6c","8","25643","","{""P0_Q0"":null,""ambiguous"":2,""objects"":2,""invisible"":3,""chaos"":2}","","","","","","","","","","","","","","","","","[]","Nearby location of Kotō 3rd Elementary School (jp_hik_sch_a_3)","ChIJLZ0mLuzXA2ARkBmZe7KxZ-s","35.1317714","136.2240495","JP","HIK","HIK","SCH","2191-2 Kotakarichō, Higashiomi, Shiga 527-0125, Japan","jp_hik_sch_b_3","90","jp_hik_sch_b_3_90"
"trial","survey","74","1542342","0.0-2.0-72.0","61220e0d654ac5a7f3f1d54f","625e209c10a247530e1c6964","625ee535573cebfc9240ed6c","8","26931","","{""P0_Q0"":null,""ambiguous"":2,""objects"":3,""invisible"":1,""chaos"":1}","","","","","","","","","","","","","","","","","[]","Nerima Sakuradai Post Office","ChIJazp3ghLtGGARuc0S6p6HeSM","35.7372339","139.6605353","JP","TOK","PER","POS","2-chōme-22-14 Toyotamakami, Nerima City, Tokyo 176-0011, Japan","jp_tok-p_pos_a_5","0","jp_tok-p_pos_a_5_0"
"trial","survey","75","1567562","0.0-2.0-73.0","61220e0d654ac5a7f3f1d54f","625e209c10a247530e1c6964","625ee535573cebfc9240ed6c","8","25204","","{""P0_Q0"":null,""ambiguous"":2,""objects"":4,""invisible"":3,""chaos"":3}","","","","","","","","","","","","","","","","","[]","3rd Haketa Elementary School","ChIJ-R1gr2OOGGARBama0y6Aw5k","35.733569","139.78608","JP","TOK","PER","SCH","1-chōme-43-1 Arakawa, Arakawa City, Tokyo 116-0002, Japan","jp_tok-p_sch_a_1","180","jp_tok-p_sch_a_1_180"
"trial","survey","76","1575914","0.0-2.0-74.0","61220e0d654ac5a7f3f1d54f","625e209c10a247530e1c6964","625ee535573cebfc9240ed6c","8","8334","","{""P0_Q0"":null,""ambiguous"":1,""objects"":1,""invisible"":1,""chaos"":1}","","","","","","","","","","","","","","","","","[]","Nearby location of Setagaya Okamoto Post Office (jp_tok-p_pos_a_1)","ChIJAVgBafjzGGAR0HytC8xomug","35.6274419","139.618016","JP","TOK","PER","POS","1-chōme-37-3 Okamoto, Setagaya City, Tokyo 157-0076, Japan","jp_tok-p_pos_b_1","0","jp_tok-p_pos_b_1_0"
"trial","survey","77","1599237","0.0-2.0-75.0","61220e0d654ac5a7f3f1d54f","625e209c10a247530e1c6964","625ee535573cebfc9240ed6c","8","23308","","{""P0_Q0"":null,""ambiguous"":2,""objects"":3,""invisible"":2,""chaos"":2}","","","","","","","","","","","","","","","","","[]","Nearby location of Yonehara Shiritsu Yonehara Elementary School (jp_hik_sch_a_1)","ChIJHY8tRnsrAmARDrvbTNjR_tg","35.3153923","136.2799377","JP","HIK","HIK","SCH","Japan, 〒521-0011 Shiga, Maibara, Nakatara, ６０３−１ Sun Village 米原","jp_hik_sch_b_1","0","jp_hik_sch_b_1_0"
"trial","survey","78","1608733","0.0-2.0-76.0","61220e0d654ac5a7f3f1d54f","625e209c10a247530e1c6964","625ee535573cebfc9240ed6c","8","9478","","{""P0_Q0"":null,""ambiguous"":1,""objects"":1,""invisible"":1,""chaos"":1}","","","","","","","","","","","","","","","","","[]","Waseda Daigaku-mae Post Office","ChIJT2M2MgONGGARQWhBX_HTPFY","35.7080144","139.7220286","JP","HIK","HIK","POS","Japan, 〒162-0041 東京都新宿区早稲田鶴巻町５３３","jp_hik_pos_a_4","180","jp_hik_pos_a_4_180"
"demographics","survey-html-form","79","1624528","0.0-2.0-77.0","61220e0d654ac5a7f3f1d54f","625e209c10a247530e1c6964","625ee535573cebfc9240ed6c","8","15790","","{""age"":""53"",""gender"":""male"",""gender-self-describe"":"""",""zipcode"":""98036""}","","","","","","","","","","","","","","","","","","","","","","","","","","","","",""
"demographics","survey","80","1636182","0.0-2.0-78.0","61220e0d654ac5a7f3f1d54f","625e209c10a247530e1c6964","625ee535573cebfc9240ed6c","8","11617","","{""P0_Q0"":null,""outsideUS"":""No"",""outsideUS_years"":""""}","","","","","","","","","","","","","","","","","[]","","","","","","","","","","","",""
"end-survey","survey-text","81","1640823","0.0-2.0-79.0","61220e0d654ac5a7f3f1d54f","625e209c10a247530e1c6964","625ee535573cebfc9240ed6c","8","4632","","{""Q0"":""""}","","","","","","","","","","","","","","","","","","","","","","","","","","","","",""
