"task","trial_type","trial_index","time_elapsed","internal_node_id","subject_id","study_id","session_id","group","rt","stimulus","response","width","height","webaudio","browser","browser_version","mobile","os","fullscreen","vsync_rate","webcam","microphone","success","timeout","failed_images","failed_audio","failed_video","accuracy","name","place_id","lat","lng","culture","loc1","loc2","loct","address","loc_id_prev","angle","loc_id"
"pavlovia-init","pavlovia","0","2174","0.0-0.0","611b39726e9958645cd37e18","626166b218b78fee4e9d8d4d","6261828658c9c41c1853c9e8","4","","","","","","","","","","","","","","","","","","","","","","","","","","","","","","","",""
"consent","html-button-response","1","13983","0.0-1.0","611b39726e9958645cd37e18","626166b218b78fee4e9d8d4d","6261828658c9c41c1853c9e8","4","11802","
        <div style=""font-size: 80%; max-width:700px"">
            <h2>Informed Consent</h2><br>
        
            <div style=""text-align: left"">
            <h3>Streetscape Perceptions</h3>
            <b>HUM00189138</b>
            <br><hr>
        
            <h4>DESCRIPTION</h4>
            <p>
                In this study, you will view Google Street View images. You will then answer questions about your impressions of the streetscapes presented in those images.
            </p><br>
        
            <h4>TIME INVOLVEMENT</h4>
            <p>Your participation will take approximately 30 minutes.</p><br>
        
            <h4>RISKS AND BENEFITS</h4>
            <p>
                The risks associated with this study are minimal. The benefits which may reasonably be expected to result from this study are none.  We cannot and do not guarantee or promise that you will receive any benefits from this study. 
            </p><br>
        
            <h4>PAYMENTS</h4>
            <p>You will be paid <b>$5.00</b> for your participation.</p><br>
        
            <h4>SUBJECT'S RIGHTS</h4>
            <p>
                If you have read this form and have decided to participate in this project, please understand your participation is voluntary and you have the right to withdraw your consent or discontinue participation at any time without penalty or loss of benefits to which you are otherwise entitled.  The alternative is not to participate.  You have the right to refuse to answer particular questions.  
            </p>
        
            <p>
                Your individual privacy will be maintained in all published and written data resulting from the study. Your responses will be kept confidential: you are given a participant code, and no one, not even the research team, can match that code with your identity. Your collected information may also be shared with other researchers as part of our dataset.
            </p><br>
        
            <h4>CONTACT INFORMATION</h4>
            <p>
                Questions: If you have any questions, concerns or complaints about this research, its procedures, risks and benefits, contact the Protocol Director, Nicholas Camp, npcamp@umich.edu, (443) 851-6783.
            </p>
        
            <p>
                If you have questions about your rights as a research participant, or wish to obtain information, ask questions or discuss any concerns about this study with someone other than the researcher(s), please contact the following:
                <br><br>
        
                University of Michigan<br>
                Health Sciences and Behavioral Sciences Institutional Review Board
                (IRB-HSBS)<br>
                2800 Plymouth Road <br>
                Building 520, Room 1169 <br>
                Ann Arbor, MI 48109-2800 <br>
                Telephone: 734-936-0933 or toll free (866) 936-0933 <br>
                Fax: 734-936-1852 <br />
                E-mail: irbhsbs@umich.edu <br>
            </p>
        
            <p>
                You can also contact the University of Michigan Compliance Hotline at 1-866-990-0111. You may also print this consent form to keep.
            </p>
            <br>
        
            <div class=""alert alert-warning""><b>
                Do you consent to participate in this study? If you consent to participate in this study, please click “Accept and continue.”
            </b></div>
            </div>
        </div>
    ","1","","","","","","","","","","","","","","","","","","","","","","","","","","","","",""
"browser-check","browser-check","2","15002","0.0-2.0-0.0","611b39726e9958645cd37e18","626166b218b78fee4e9d8d4d","6261828658c9c41c1853c9e8","4","","","","980","1884","true","ios","15.4.0","true","iOS","false","60.06","true","true","","","","","","","","","","","","","","","","","",""
"","preload","3","28792","0.0-2.0-1.0","611b39726e9958645cd37e18","626166b218b78fee4e9d8d4d","6261828658c9c41c1853c9e8","4","","","","","","","","","","","","","","","true","false","[]","[]","[]","","","","","","","","","","","","",""
"instructions","html-button-response","4","47128","0.0-2.0-2.0","611b39726e9958645cd37e18","626166b218b78fee4e9d8d4d","6261828658c9c41c1853c9e8","4","18333","
        <div class=""text-container"">
            <h1>Welcome to the study!</h1>
            
            <div class=""text-left"">
                <p>
                    In this study, we are interested in how people think about different Google Street View images. Google Street View takes pictures of streets used for Google Earth and Google Maps. You’ll see Google Street View images of different places and answer some questions about each one.
                </p>
            </div>
            
            <img src='
            https://maps.googleapis.com/maps/api/streetview?size=640x320
            &location=37.783631,-122.432766
            &heading=80
            &pitch=2
            &fov=100
            &radius=150
            &key=AIzaSyC2OxRDg6qlzZDj7j0UAD2XyE0qWokLvvs
            &source=outdoor'>
        
            <br>
        <br>
    ","0","","","","","","","","","","","","","","","","","","","","","","","","","","","","",""
"instructions","html-button-response","5","79044","0.0-2.0-3.0","611b39726e9958645cd37e18","626166b218b78fee4e9d8d4d","6261828658c9c41c1853c9e8","4","31609","
        <style>
            img.small {
            max-width: 100px;
            }
            li {
            text-indent: 40px;
            }
        </style>

        <div class=""text-container text-left"">
            <p>For each picture, we’d like your impressions of the scene:</p>
            
            <hr>
                Are there <b>clear, distinct boundaries</b> between objects in the scene, or are the <b>boundaries ambiguous or unclear</b>?
                
                <li>clear, distinct boundaries: <img class=""small"" src=""assets/img/ambiguous-low.png""></li>
                <li>ambiguous or unclear boundaries: <img class=""small"" src=""assets/img/ambiguous-high.png""></li>
            <hr>
            <br>
                Are there <b>only a few different objects</b> in the scene, or is there <b>a large number</b>?
            <br><br>
            <hr>
                Are only <b>a few parts</b> of the scene <b>invisible or obscured</b>, or are <b>many parts invisible or obscured</b>?
                
                <li>a few parts invisible or obscured: <img class=""small"" src=""assets/img/invisible-low.png""></li>
                <li>many parts invisible or obscured: <img class=""small"" src=""assets/img/invisible-high.png""></li>
            <hr>
            <br>
                Does the scene look <b>organized</b> or <b>chaotic</b> to you?
            <br><br>
            <hr>
            
            <p>
                There are no right or wrong answers: we are interested in <b>your</b> impression. Note that some images might have individual buildings or faces blurred for privacy. Please ignore these when making your judgments.
            </p>
        </div>
        <br>
    ","0","","","","","","","","","","","","","","","","","","","","","","","","","","","","",""
"instructions","html-button-response","6","88427","0.0-2.0-4.0","611b39726e9958645cd37e18","626166b218b78fee4e9d8d4d","6261828658c9c41c1853c9e8","4","9378","
        <div class=""text-container text-left"">
            <p>Please make sure you are doing this study in an area where you can focus and complete the survey in one sitting.</p>

            <p>Don’t spend too much time on any one picture, and, again go with your gut impression!</p>
            
            <p>The study should take about 30 minutes. We’ll let you know when you’re halfway through.</p>
        </div>
            
        <h3>Ready? Click next to get started!</h3>
        <br>
    ","0","","","","","","","","","","","","","","","","","","","","","","","","","","","","",""
"trial","survey","7","123639","0.0-2.0-5.0","611b39726e9958645cd37e18","626166b218b78fee4e9d8d4d","6261828658c9c41c1853c9e8","4","35123","","{""P0_Q0"":null,""ambiguous"":1,""objects"":4,""invisible"":3,""chaos"":2}","","","","","","","","","","","","","","","","","[]","Nearby location of Minami-Ikebukuro Post Office (jp_tok-c_pos_a_6)","ChIJYSTPzWmNGGARuevXlN7s3ko","35.7261522","139.7122633","JP","TOK","CTR","POS","3-chōme-13-20 Minamiikebukuro, Toshima City, Tokyo 171-0022, Japan","jp_tok-c_pos_b_6","180","jp_tok-c_pos_b_6_180"
"trial","survey","8","154429","0.0-2.0-6.0","611b39726e9958645cd37e18","626166b218b78fee4e9d8d4d","6261828658c9c41c1853c9e8","4","30769","","{""P0_Q0"":null,""ambiguous"":1,""objects"":2,""invisible"":1,""chaos"":1}","","","","","","","","","","","","","","","","","[]","Nearby location of Horace Mann Barnard Elementary (us_nyc-p_sch_a_1)","ChIJ9ds6urrzwokRAWUJ8d6GdJk","40.8906469","-73.9015387","US","NYC","PER","SCH","Chrysostom Hall, 4513 Manhattan College Pkwy, Bronx, NY 10471, USA","us_nyc-p_sch_b_1","180","us_nyc-p_sch_b_1_180"
"trial","survey","9","176843","0.0-2.0-7.0","611b39726e9958645cd37e18","626166b218b78fee4e9d8d4d","6261828658c9c41c1853c9e8","4","22389","","{""P0_Q0"":null,""ambiguous"":1,""objects"":5,""invisible"":2,""chaos"":1}","","","","","","","","","","","","","","","","","[]","Yonehara Shiritsu Yonehara Elementary School","ChIJaQYSoWQrAmARNFmF-erxUY4","35.31424","136.280753","JP","HIK","HIK","SCH","307 Irie, Maibara, Shiga 521-0003, Japan","jp_hik_sch_a_1","90","jp_hik_sch_a_1_90"
"trial","survey","10","204156","0.0-2.0-8.0","611b39726e9958645cd37e18","626166b218b78fee4e9d8d4d","6261828658c9c41c1853c9e8","4","27290","","{""P0_Q0"":null,""ambiguous"":4,""objects"":5,""invisible"":2,""chaos"":4}","","","","","","","","","","","","","","","","","[]","Sakata Elementary School","ChIJVW6XQ3csAmARmDgDxmrtsD8","35.33759","136.289157","JP","HIK","HIK","SCH","508 Ukano, Maibara, Shiga 521-0062, Japan","jp_hik_sch_a_4","0","jp_hik_sch_a_4_0"
"trial","survey","11","228322","0.0-2.0-9.0","611b39726e9958645cd37e18","626166b218b78fee4e9d8d4d","6261828658c9c41c1853c9e8","4","24146","","{""P0_Q0"":null,""ambiguous"":3,""objects"":4,""invisible"":2,""chaos"":3}","","","","","","","","","","","","","","","","","[]","Hotel Villa Fontaine Nihombashi-Hakozaki","HSTYOASY","35.68042","139.78604","JP","TOK","CTR","HTL","20-10, NIHOMBASHI-HAKOZAKI-CHO, TOKYO 103-0015","jp_tok-c_htl_a_low1","0","jp_tok-c_htl_a_low1_0"
"trial","survey","12","245847","0.0-2.0-10.0","611b39726e9958645cd37e18","626166b218b78fee4e9d8d4d","6261828658c9c41c1853c9e8","4","17500","","{""P0_Q0"":null,""ambiguous"":2,""objects"":5,""invisible"":2,""chaos"":3}","","","","","","","","","","","","","","","","","[]","Tokyo High Court Post Office","ChIJ8YHhS_OLGGARiMJcBz0Ip60","35.6752316","139.753074","JP","TOK","CTR","POS","1-chōme-1-4 Kasumigaseki, Chiyoda City, Tokyo 100-0013, Japan","jp_tok-c_pos_a_1","0","jp_tok-c_pos_a_1_0"
"trial","survey","13","279843","0.0-2.0-11.0","611b39726e9958645cd37e18","626166b218b78fee4e9d8d4d","6261828658c9c41c1853c9e8","4","33978","","{""P0_Q0"":null,""ambiguous"":1,""objects"":3,""invisible"":2,""chaos"":3}","","","","","","","","","","","","","","","","","[]","Success Academy Harlem 5","ChIJLXaSYHr2wokROx6Mq1FzC9A","40.820192","-73.9444568","US","NYC","CTR","SCH","301 W 140th St, New York, NY 10030, USA","us_nyc-c_sch_a_2","180","us_nyc-c_sch_a_2_180"
"trial","survey","14","295914","0.0-2.0-12.0","611b39726e9958645cd37e18","626166b218b78fee4e9d8d4d","6261828658c9c41c1853c9e8","4","16055","","{""P0_Q0"":null,""ambiguous"":5,""objects"":1,""invisible"":3,""chaos"":5}","","","","","","","","","","","","","","","","","[]","Hotel Route-Inn Nagahama Inter","ChIJmQLsstAuAmARAC8tYd9WWwc","35.3970578","136.2947216","JP","TOR","TOR","HTL","Japan, 〒526-0804 Shiga, Nagahama, Kanōchō, 字上角田884-1","jp_tor_htl_a_low1","180","jp_tor_htl_a_low1_180"
"trial","survey","15","316527","0.0-2.0-13.0","611b39726e9958645cd37e18","626166b218b78fee4e9d8d4d","6261828658c9c41c1853c9e8","4","20592","","{""P0_Q0"":null,""ambiguous"":1,""objects"":3,""invisible"":3,""chaos"":2}","","","","","","","","","","","","","","","","","[]","Nearby location of Hikoneatohoteru (jp_hik_htl_a_low1)","ChIJc83wWVfUA2ARvLpBq3jM4k4","35.2381105","136.2567336","JP","HIK","HIK","HTL","Green Hill Takamiya Park, 1780 Takamiyachō, Hikone, Shiga 522-0201, Japan","jp_hik_htl_b_low1","90","jp_hik_htl_b_low1_90"
"trial","survey","16","327099","0.0-2.0-14.0","611b39726e9958645cd37e18","626166b218b78fee4e9d8d4d","6261828658c9c41c1853c9e8","4","10549","","{""P0_Q0"":null,""ambiguous"":2,""objects"":2,""invisible"":1,""chaos"":2}","","","","","","","","","","","","","","","","","[]","The Pearl NYC","XTLGATPH","40.76144","-73.98553","US","NYC","CTR","HTL","233 W 49TH ST, NEW YORK, NY 10019","us_nyc-c_htl_a_high1","180","us_nyc-c_htl_a_high1_180"
"trial","survey","17","339005","0.0-2.0-15.0","611b39726e9958645cd37e18","626166b218b78fee4e9d8d4d","6261828658c9c41c1853c9e8","4","11886","","{""P0_Q0"":null,""ambiguous"":1,""objects"":1,""invisible"":2,""chaos"":3}","","","","","","","","","","","","","","","","","[]","Manually Updated Jittered SV for Nearby location of Marunouchi Center Bldg. Post Office (jp_tok-c_pos_a_8) (jp_tok-c_pos_b_8)","ChIJnUcMGviLGGAROCgXeJNX4xg","35.685418","139.762932","JP","TOK","CTR","POS","1-chōme-1 Ōtemachi, Chiyoda City, Tokyo 100-0004, Japan","jp_tok-c_pos_b_8","0","jp_tok-c_pos_b_8_0"
"trial","survey","18","378676","0.0-2.0-16.0","611b39726e9958645cd37e18","626166b218b78fee4e9d8d4d","6261828658c9c41c1853c9e8","4","39657","","{""P0_Q0"":null,""ambiguous"":4,""objects"":5,""invisible"":2,""chaos"":3}","","","","","","","","","","","","","","","","","[]","Comfort Inn JFK Airport","CINYC672","40.66585","-73.80762","US","NYC","PER","HTL","132-15 NASSAU EXPRESSWAY, JAMAICA, NY 11430","us_nyc-p_htl_a_low2","0","us_nyc-p_htl_a_low2_0"
"trial","survey","19","396516","0.0-2.0-17.0","611b39726e9958645cd37e18","626166b218b78fee4e9d8d4d","6261828658c9c41c1853c9e8","4","17821","","{""P0_Q0"":null,""ambiguous"":5,""objects"":4,""invisible"":2,""chaos"":5}","","","","","","","","","","","","","","","","","[]","Setagaya Okamoto Post Office","ChIJU6mt5gf0GGARS1eqIkjSKT4","35.6261891","139.6194159","JP","TOK","PER","POS","1-chōme-30-7 Okamoto, Setagaya City, Tokyo 157-0076, Japan","jp_tok-p_pos_a_1","0","jp_tok-p_pos_a_1_0"
"trial","survey","20","406093","0.0-2.0-18.0","611b39726e9958645cd37e18","626166b218b78fee4e9d8d4d","6261828658c9c41c1853c9e8","4","9557","","{""P0_Q0"":null,""ambiguous"":5,""objects"":5,""invisible"":1,""chaos"":5}","","","","","","","","","","","","","","","","","[]","Nearby location of Bronx Charter School for Excellence 3 (us_nyc-p_sch_a_6)","ChIJe_mvGSPzwokRCYjGIqRdQGo","40.8872687","-73.8619035","US","NYC","PER","SCH","672 E 224th St, Bronx, NY 10466, USA","us_nyc-p_sch_b_6","90","us_nyc-p_sch_b_6_90"
"trial","survey","21","417664","0.0-2.0-19.0","611b39726e9958645cd37e18","626166b218b78fee4e9d8d4d","6261828658c9c41c1853c9e8","4","11548","","{""P0_Q0"":null,""ambiguous"":4,""objects"":3,""invisible"":2,""chaos"":3}","","","","","","","","","","","","","","","","","[]","Nearby location of P.S. 020 John Bowne (us_nyc-p_sch_a_5)","ChIJ-7aNoRZgwokRFC2hF6Idg2E","40.7572054","-73.8229217","US","NYC","PER","SCH","14231 Franklin Ave, Queens, NY 11355, USA","us_nyc-p_sch_b_5","180","us_nyc-p_sch_b_5_180"
"trial","survey","22","428404","0.0-2.0-20.0","611b39726e9958645cd37e18","626166b218b78fee4e9d8d4d","6261828658c9c41c1853c9e8","4","10721","","{""P0_Q0"":null,""ambiguous"":2,""objects"":4,""invisible"":2,""chaos"":3}","","","","","","","","","","","","","","","","","[]","Comfort Inn JFK Airport","CINYC672","40.66585","-73.80762","US","NYC","PER","HTL","132-15 NASSAU EXPRESSWAY, JAMAICA, NY 11430","us_nyc-p_htl_a_low2","90","us_nyc-p_htl_a_low2_90"
"trial","survey","23","436778","0.0-2.0-21.0","611b39726e9958645cd37e18","626166b218b78fee4e9d8d4d","6261828658c9c41c1853c9e8","4","8358","","{""P0_Q0"":null,""ambiguous"":3,""objects"":2,""invisible"":2,""chaos"":3}","","","","","","","","","","","","","","","","","[]","Nearby location of Hilton Garden Inn New York/Manhattan-Midtown East (us_nyc-c_htl_a_low2)","ChIJp7rOeORYwokR0fuDKJJiHkw","40.7579935","-73.9679168","US","NYC","CTR","HTL","223 E 54th St, New York, NY 10022, USA","us_nyc-c_htl_b_low2","180","us_nyc-c_htl_b_low2_180"
"trial","survey","24","453511","0.0-2.0-22.0","611b39726e9958645cd37e18","626166b218b78fee4e9d8d4d","6261828658c9c41c1853c9e8","4","16719","","{""P0_Q0"":null,""ambiguous"":4,""objects"":4,""invisible"":2,""chaos"":3}","","","","","","","","","","","","","","","","","[]","Math, Language and Art Elementary Math Algebra I & II Geometry PreCalculus Calculus College Math Data Analysis","ChIJt2b18g9gwokRk8pPfW8GOkc","40.762569","-73.8314318","US","NYC","PER","SCH","123 Main St, Flushing, NY 11354, USA","us_nyc-p_sch_a_2","180","us_nyc-p_sch_a_2_180"
"trial","survey","25","469398","0.0-2.0-23.0","611b39726e9958645cd37e18","626166b218b78fee4e9d8d4d","6261828658c9c41c1853c9e8","4","15869","","{""P0_Q0"":null,""ambiguous"":4,""objects"":4,""invisible"":2,""chaos"":4}","","","","","","","","","","","","","","","","","[]","Nearby location of United States Postal Service (us_nyc-c_pos_a_2)","ChIJtTVWPTz2wokR67Bcx4reZLs","40.8061808","-73.963843","US","NYC","CTR","POS","540 W 114th St, New York, NY 10025, USA","us_nyc-c_pos_b_2","270","us_nyc-c_pos_b_2_270"
"trial","survey","26","477193","0.0-2.0-24.0","611b39726e9958645cd37e18","626166b218b78fee4e9d8d4d","6261828658c9c41c1853c9e8","4","7776","","{""P0_Q0"":null,""ambiguous"":5,""objects"":5,""invisible"":2,""chaos"":3}","","","","","","","","","","","","","","","","","[]","United States Postal Service","ChIJESBBoWz2wokRc5NBjEpQTow","40.8112416","-73.9532884","US","NYC","CTR","POS","365 W 125th St Ste 2A, New York, NY 10027, USA","us_nyc-c_pos_a_1","270","us_nyc-c_pos_a_1_270"
"trial","survey","27","494707","0.0-2.0-25.0","611b39726e9958645cd37e18","626166b218b78fee4e9d8d4d","6261828658c9c41c1853c9e8","4","17499","","{""P0_Q0"":null,""ambiguous"":1,""objects"":2,""invisible"":2,""chaos"":1}","","","","","","","","","","","","","","","","","[]","Manually Updated Nearby location of Multicultural Academy (us_arb_sch_a_3)","ChIJ-d4ve5SlPIgRkuG2a85xlZo","42.206221","-83.699299","US","ARB","ARB","SCH","2866 Glen Creek Dr, Ann Arbor, MI 48108, USA","us_arb_sch_b_3","270","us_arb_sch_b_3_270"
"trial","survey","28","506588","0.0-2.0-26.0","611b39726e9958645cd37e18","626166b218b78fee4e9d8d4d","6261828658c9c41c1853c9e8","4","11845","","{""P0_Q0"":null,""ambiguous"":3,""objects"":3,""invisible"":2,""chaos"":1}","","","","","","","","","","","","","","","","","[]","Yotsuya Station Post Office","ChIJM8cHVYqMGGARUz2wtp-skCo","35.6875819","139.7296034","JP","TOK","CTR","POS","Japan, 〒160-0004 Tokyo, Shinjuku City, Yotsuya, 1-chōme−６−１","jp_tok-c_pos_a_3","180","jp_tok-c_pos_a_3_180"
"trial","survey","29","521885","0.0-2.0-27.0","611b39726e9958645cd37e18","626166b218b78fee4e9d8d4d","6261828658c9c41c1853c9e8","4","15277","","{""P0_Q0"":null,""ambiguous"":3,""objects"":2,""invisible"":1,""chaos"":2}","","","","","","","","","","","","","","","","","[]","Graduate Ann Arbor","GPARB348","42.28143","-83.74164","US","ARB","ARB","HTL","615 E HURON ST , ANN ARBOR, MI 48104","us_arb_htl_a_high1","0","us_arb_htl_a_high1_0"
"trial","survey","30","538435","0.0-2.0-28.0","611b39726e9958645cd37e18","626166b218b78fee4e9d8d4d","6261828658c9c41c1853c9e8","4","16533","","{""P0_Q0"":null,""ambiguous"":5,""objects"":3,""invisible"":1,""chaos"":5}","","","","","","","","","","","","","","","","","[]","Nearby location of Minami-Ikebukuro Post Office (jp_tok-c_pos_a_6)","ChIJYSTPzWmNGGARuevXlN7s3ko","35.7261522","139.7122633","JP","TOK","CTR","POS","3-chōme-13-20 Minamiikebukuro, Toshima City, Tokyo 171-0022, Japan","jp_tok-c_pos_b_6","0","jp_tok-c_pos_b_6_0"
"trial","survey","31","550168","0.0-2.0-29.0","611b39726e9958645cd37e18","626166b218b78fee4e9d8d4d","6261828658c9c41c1853c9e8","4","11709","","{""P0_Q0"":null,""ambiguous"":5,""objects"":5,""invisible"":2,""chaos"":3}","","","","","","","","","","","","","","","","","[]","Mandarin Oriental New York","MONYCMO1","40.7689","-73.98305","US","NYC","CTR","HTL","80  COLUMBUS CIRCLE AT 60TH STREET, NEW YORK, NY 10023","us_nyc-c_htl_a_ultra1","90","us_nyc-c_htl_a_ultra1_90"
"trial","survey","32","561130","0.0-2.0-30.0","611b39726e9958645cd37e18","626166b218b78fee4e9d8d4d","6261828658c9c41c1853c9e8","4","10944","","{""P0_Q0"":null,""ambiguous"":4,""objects"":5,""invisible"":2,""chaos"":5}","","","","","","","","","","","","","","","","","[]","Tyler school","ChIJt-5KfXv1wokRq4WnokUwQ44","40.8513114","-73.8564072","US","NYC","PER","SCH","1916 Hone Ave, Bronx, NY 10461, USA","us_nyc-p_sch_a_3","180","us_nyc-p_sch_a_3_180"
"trial","survey","33","587054","0.0-2.0-31.0","611b39726e9958645cd37e18","626166b218b78fee4e9d8d4d","6261828658c9c41c1853c9e8","4","25909","","{""P0_Q0"":null,""ambiguous"":2,""objects"":5,""invisible"":2,""chaos"":1}","","","","","","","","","","","","","","","","","[]","Tyler school","ChIJt-5KfXv1wokRq4WnokUwQ44","40.8513114","-73.8564072","US","NYC","PER","SCH","1916 Hone Ave, Bronx, NY 10461, USA","us_nyc-p_sch_a_3","270","us_nyc-p_sch_a_3_270"
"trial","survey","34","600366","0.0-2.0-32.0","611b39726e9958645cd37e18","626166b218b78fee4e9d8d4d","6261828658c9c41c1853c9e8","4","13289","","{""P0_Q0"":null,""ambiguous"":3,""objects"":2,""invisible"":2,""chaos"":1}","","","","","","","","","","","","","","","","","[]","Quality Inn and Suites Ann Arbor Hwy 23","QIARB356","42.25224","-83.68168","US","ARB","ARB","HTL","2376 CARPENTER ROAD, ANN ARBOR, MI 48018","us_arb_htl_a_mid2","180","us_arb_htl_a_mid2_180"
"trial","survey","35","612362","0.0-2.0-33.0","611b39726e9958645cd37e18","626166b218b78fee4e9d8d4d","6261828658c9c41c1853c9e8","4","12029","","{""P0_Q0"":null,""ambiguous"":2,""objects"":4,""invisible"":2,""chaos"":3}","","","","","","","","","","","","","","","","","[]","Success Academy Harlem 5","ChIJLXaSYHr2wokROx6Mq1FzC9A","40.820192","-73.9444568","US","NYC","CTR","SCH","301 W 140th St, New York, NY 10030, USA","us_nyc-c_sch_a_2","90","us_nyc-c_sch_a_2_90"
"trial","survey","36","634632","0.0-2.0-34.0","611b39726e9958645cd37e18","626166b218b78fee4e9d8d4d","6261828658c9c41c1853c9e8","4","22255","","{""P0_Q0"":null,""ambiguous"":2,""objects"":3,""invisible"":1,""chaos"":1}","","","","","","","","","","","","","","","","","[]","Best Western Plus Arena Hotel","BWJFK142","40.67815","-73.94879","US","NYC","PER","HTL","1324 ATLANTIC AVENUE, BROOKLYN, NY 11216","us_nyc-p_htl_a_low1","180","us_nyc-p_htl_a_low1_180"
"half-way","html-button-response","37","643263","0.0-2.0-35.0","611b39726e9958645cd37e18","626166b218b78fee4e9d8d4d","6261828658c9c41c1853c9e8","4","8627","
            <h3>You are now half way through the study.</h3>
            <p>Please take a quick, 15-second break before you continue.</p>
            <img src='assets/img/countdown-15.gif'>
            <p>The study will automatically advance forward after the countdown is complete. However, you may click ""Next"" to advance forward now if you wish.</p>
        ","0","","","","","","","","","","","","","","","","","","","","","","","","","","","","",""
"attention-check","survey","38","655256","0.0-2.0-36.0","611b39726e9958645cd37e18","626166b218b78fee4e9d8d4d","6261828658c9c41c1853c9e8","4","11958","","{""P0_Q0"":null,""ambiguous"":null,""objects"":null,""invisible"":null,""chaos"":null}","","","","","","","","","","","","","","","","","[]","","","","","","","","","","","",""
"trial","survey","39","672118","0.0-2.0-37.0","611b39726e9958645cd37e18","626166b218b78fee4e9d8d4d","6261828658c9c41c1853c9e8","4","16845","","{""P0_Q0"":null,""ambiguous"":4,""objects"":5,""invisible"":1,""chaos"":5}","","","","","","","","","","","","","","","","","[]","Adachi Asahicho Post Office","ChIJwzPq-E2OGGAR94jgKLnB1pg","35.7492042","139.8090847","JP","TOK","PER","POS","27-13 Senjuasahichō, Adachi City, Tokyo 120-0026, Japan","jp_tok-p_pos_a_4","270","jp_tok-p_pos_a_4_270"
"trial","survey","40","697201","0.0-2.0-38.0","611b39726e9958645cd37e18","626166b218b78fee4e9d8d4d","6261828658c9c41c1853c9e8","4","25069","","{""P0_Q0"":null,""ambiguous"":2,""objects"":4,""invisible"":1,""chaos"":4}","","","","","","","","","","","","","","","","","[]","United States Postal Service","ChIJt9iTcDz2wokR8BrJr4TbjWQ","40.8049683","-73.9649034","US","NYC","CTR","POS","534 W 112th St, New York, NY 10025, USA","us_nyc-c_pos_a_2","270","us_nyc-c_pos_a_2_270"
"trial","survey","41","710313","0.0-2.0-39.0","611b39726e9958645cd37e18","626166b218b78fee4e9d8d4d","6261828658c9c41c1853c9e8","4","13086","","{""P0_Q0"":null,""ambiguous"":1,""objects"":4,""invisible"":1,""chaos"":3}","","","","","","","","","","","","","","","","","[]","United States Postal Service","ChIJb5pfwxb2wokR4-EvJ1w0znA","40.8036447","-73.9541827","US","NYC","CTR","POS","232 W 116th St, New York, NY 10026, USA","us_nyc-c_pos_a_7","90","us_nyc-c_pos_a_7_90"
"trial","survey","42","723569","0.0-2.0-40.0","611b39726e9958645cd37e18","626166b218b78fee4e9d8d4d","6261828658c9c41c1853c9e8","4","13236","","{""P0_Q0"":null,""ambiguous"":1,""objects"":3,""invisible"":1,""chaos"":1}","","","","","","","","","","","","","","","","","[]","Manually Updated Jittered SV for The Tokyo Station Hotel (jp_tok-c_htl_a_high2)","ChIJC3Cf2PuLGGAROO00ukl8JwA","35.681076","139.765519","JP","TOK","CTR","HTL","Tokyo Station, 1-chōme-9 Marunouchi, Chiyoda City, Tokyo 100-0005, Japan","jp_tok-c_htl_a_high2","90","jp_tok-c_htl_a_high2_90"
"trial","survey","43","732233","0.0-2.0-41.0","611b39726e9958645cd37e18","626166b218b78fee4e9d8d4d","6261828658c9c41c1853c9e8","4","8650","","{""P0_Q0"":null,""ambiguous"":3,""objects"":2,""invisible"":1,""chaos"":2}","","","","","","","","","","","","","","","","","[]","Nearby location of United States Postal Service (us_nyc-p_pos_a_3)","ChIJe2q9KVpDwokRU6MLLhMmHvo","40.6168044","-73.9301797","US","NYC","PER","POS","Parking lot, 2187 Flatbush Ave, Brooklyn, NY 11234, USA","us_nyc-p_pos_b_3","90","us_nyc-p_pos_b_3_90"
"trial","survey","44","744089","0.0-2.0-42.0","611b39726e9958645cd37e18","626166b218b78fee4e9d8d4d","6261828658c9c41c1853c9e8","4","11842","","{""P0_Q0"":null,""ambiguous"":1,""objects"":2,""invisible"":1,""chaos"":5}","","","","","","","","","","","","","","","","","[]","Nearby location of Tokyo Marriott Hotel (jp_tok-p_htl_a_high1)","ChIJsyQuX16KGGARNJl4U-sZQG0","35.620812","139.7355647","JP","TOK","PER","HTL","Japan, 〒140-0001 Tokyo, Shinagawa City, Kitashinagawa, 4-chōme−6−１７ セレソ御殿山","jp_tok-p_htl_b_high1","180","jp_tok-p_htl_b_high1_180"
"trial","survey","45","767039","0.0-2.0-43.0","611b39726e9958645cd37e18","626166b218b78fee4e9d8d4d","6261828658c9c41c1853c9e8","4","22933","","{""P0_Q0"":null,""ambiguous"":1,""objects"":2,""invisible"":1,""chaos"":2}","","","","","","","","","","","","","","","","","[]","Nearby location of びわ湖畔リゾート 白浜荘 (jp_hik_htl_a_mid2)","ChIJR-fdOL6aAWARRx-bTY1d8b8","35.3062783","136.038326","JP","HIK","HIK","HTL","2315-3 Adogawachō Shimoogawa, Takashima, Shiga 520-1223, Japan","jp_hik_htl_b_mid2","90","jp_hik_htl_b_mid2_90"
"trial","survey","46","781098","0.0-2.0-44.0","611b39726e9958645cd37e18","626166b218b78fee4e9d8d4d","6261828658c9c41c1853c9e8","4","14045","","{""P0_Q0"":null,""ambiguous"":5,""objects"":5,""invisible"":5,""chaos"":5}","","","","","","","","","","","","","","","","","[]","Nearby location of Tokyo High Court Post Office (jp_tok-c_pos_a_1)","ChIJX7W2HiiLGGARCTbu8qla3Mw","35.6737726","139.7542634","JP","TOK","CTR","POS","1 Hibiyakoen, Chiyoda City, Tokyo 100-0012, Japan","jp_tok-c_pos_b_1","90","jp_tok-c_pos_b_1_90"
"trial","survey","47","800615","0.0-2.0-45.0","611b39726e9958645cd37e18","626166b218b78fee4e9d8d4d","6261828658c9c41c1853c9e8","4","19504","","{""P0_Q0"":null,""ambiguous"":3,""objects"":3,""invisible"":1,""chaos"":3}","","","","","","","","","","","","","","","","","[]","レジーナリゾートびわ湖長浜","ChIJJ5e4VxopAmAR65mu8Uxdxg0","35.3785745","136.2594856","JP","HIK","HIK","HTL","4-22 Kōenchō, Nagahama, Shiga 526-0065, Japan","jp_hik_htl_a_high2","0","jp_hik_htl_a_high2_0"
"trial","survey","48","819260","0.0-2.0-46.0","611b39726e9958645cd37e18","626166b218b78fee4e9d8d4d","6261828658c9c41c1853c9e8","4","18623","","{""P0_Q0"":null,""ambiguous"":2,""objects"":4,""invisible"":1,""chaos"":4}","","","","","","","","","","","","","","","","","[]","Nearby location of Bronx Charter School for Excellence 3 (us_nyc-p_sch_a_6)","ChIJe_mvGSPzwokRCYjGIqRdQGo","40.8872687","-73.8619035","US","NYC","PER","SCH","672 E 224th St, Bronx, NY 10466, USA","us_nyc-p_sch_b_6","180","us_nyc-p_sch_b_6_180"
"trial","survey","49","828275","0.0-2.0-47.0","611b39726e9958645cd37e18","626166b218b78fee4e9d8d4d","6261828658c9c41c1853c9e8","4","8997","","{""P0_Q0"":null,""ambiguous"":3,""objects"":4,""invisible"":1,""chaos"":2}","","","","","","","","","","","","","","","","","[]","Nearby location of Sakata Elementary School (jp_hik_sch_a_4)","ChIJBzK5RHYsAmARdmisGXiOTX0","35.3390583","136.2876793","JP","HIK","HIK","SCH","528 Ukano, Maibara, Shiga 521-0062, Japan","jp_hik_sch_b_4","90","jp_hik_sch_b_4_90"
"trial","survey","50","844495","0.0-2.0-48.0","611b39726e9958645cd37e18","626166b218b78fee4e9d8d4d","6261828658c9c41c1853c9e8","4","16206","","{""P0_Q0"":null,""ambiguous"":1,""objects"":1,""invisible"":1,""chaos"":1}","","","","","","","","","","","","","","","","","[]","Yonehara Shiritsu Yonehara Elementary School","ChIJaQYSoWQrAmARNFmF-erxUY4","35.31424","136.280753","JP","HIK","HIK","SCH","307 Irie, Maibara, Shiga 521-0003, Japan","jp_hik_sch_a_1","270","jp_hik_sch_a_1_270"
"trial","survey","51","857742","0.0-2.0-49.0","611b39726e9958645cd37e18","626166b218b78fee4e9d8d4d","6261828658c9c41c1853c9e8","4","13226","","{""P0_Q0"":null,""ambiguous"":3,""objects"":5,""invisible"":1,""chaos"":1}","","","","","","","","","","","","","","","","","[]","Adahi Sano Post Office","ChIJuYxTuuOPGGAREn1yJl24fbw","35.7864794","139.8411136","JP","HIK","HIK","POS","2-chōme-11-12 Sano, Adachi City, Tokyo 121-0053, Japan","jp_hik_pos_a_3","0","jp_hik_pos_a_3_0"
"trial","survey","52","883643","0.0-2.0-50.0","611b39726e9958645cd37e18","626166b218b78fee4e9d8d4d","6261828658c9c41c1853c9e8","4","25883","","{""P0_Q0"":null,""ambiguous"":1,""objects"":3,""invisible"":2,""chaos"":3}","","","","","","","","","","","","","","","","","[]","Hotel Villa Fontaine Nihombashi-Hakozaki","HSTYOASY","35.68042","139.78604","JP","TOK","CTR","HTL","20-10, NIHOMBASHI-HAKOZAKI-CHO, TOKYO 103-0015","jp_tok-c_htl_a_low1","90","jp_tok-c_htl_a_low1_90"
"trial","survey","53","896041","0.0-2.0-51.0","611b39726e9958645cd37e18","626166b218b78fee4e9d8d4d","6261828658c9c41c1853c9e8","4","12375","","{""P0_Q0"":null,""ambiguous"":2,""objects"":5,""invisible"":1,""chaos"":3}","","","","","","","","","","","","","","","","","[]","Mercer Hotel","WVNYCMER","40.72603","-73.99856","US","NYC","CTR","HTL","147 MERCER STREET , NEW YORK, NY 10012","us_nyc-c_htl_a_ultra2","0","us_nyc-c_htl_a_ultra2_0"
"trial","survey","54","905251","0.0-2.0-52.0","611b39726e9958645cd37e18","626166b218b78fee4e9d8d4d","6261828658c9c41c1853c9e8","4","9193","","{""P0_Q0"":null,""ambiguous"":4,""objects"":5,""invisible"":1,""chaos"":3}","","","","","","","","","","","","","","","","","[]","Nearby location of P.S. 020 John Bowne (us_nyc-p_sch_a_5)","ChIJ-7aNoRZgwokRFC2hF6Idg2E","40.7572054","-73.8229217","US","NYC","PER","SCH","14231 Franklin Ave, Queens, NY 11355, USA","us_nyc-p_sch_b_5","0","us_nyc-p_sch_b_5_0"
"trial","survey","55","919283","0.0-2.0-53.0","611b39726e9958645cd37e18","626166b218b78fee4e9d8d4d","6261828658c9c41c1853c9e8","4","14011","","{""P0_Q0"":null,""ambiguous"":5,""objects"":2,""invisible"":2,""chaos"":2}","","","","","","","","","","","","","","","","","[]","Nearby location of Minami-Ikebukuro Post Office (jp_tok-c_pos_a_6)","ChIJYSTPzWmNGGARuevXlN7s3ko","35.7261522","139.7122633","JP","TOK","CTR","POS","3-chōme-13-20 Minamiikebukuro, Toshima City, Tokyo 171-0022, Japan","jp_tok-c_pos_b_6","90","jp_tok-c_pos_b_6_90"
"trial","survey","56","929845","0.0-2.0-54.0","611b39726e9958645cd37e18","626166b218b78fee4e9d8d4d","6261828658c9c41c1853c9e8","4","10544","","{""P0_Q0"":null,""ambiguous"":3,""objects"":2,""invisible"":1,""chaos"":2}","","","","","","","","","","","","","","","","","[]","Nearby location of Flexstay Inn Shinagawa (jp_tok-p_htl_a_mid2)","ChIJd27F2VyKGGARc1F75nZNGYI","35.6235067","139.7415021","JP","TOK","PER","HTL","1-chōme-8-19 Kitashinagawa, Shinagawa City, Tokyo 140-0001, Japan","jp_tok-p_htl_b_mid2","180","jp_tok-p_htl_b_mid2_180"
"trial","survey","57","939379","0.0-2.0-55.0","611b39726e9958645cd37e18","626166b218b78fee4e9d8d4d","6261828658c9c41c1853c9e8","4","9521","","{""P0_Q0"":null,""ambiguous"":2,""objects"":3,""invisible"":3,""chaos"":2}","","","","","","","","","","","","","","","","","[]","Mitsui Garden Kyobashi Tokyo","UITYOMGK","35.67906","139.77122","JP","TOK","CTR","HTL","1-3-6, KYOBASHI, CHUO-KU, TOKYO 1040031","jp_tok-c_htl_a_low2","90","jp_tok-c_htl_a_low2_90"
"trial","survey","58","949656","0.0-2.0-56.0","611b39726e9958645cd37e18","626166b218b78fee4e9d8d4d","6261828658c9c41c1853c9e8","4","10259","","{""P0_Q0"":null,""ambiguous"":5,""objects"":5,""invisible"":1,""chaos"":3}","","","","","","","","","","","","","","","","","[]","THOMPSON CENTRAL PARK - NEW YORK","HYNYCPAH","40.76418","-73.97855","US","NYC","CTR","HTL","119 WEST 56 STREET, NEW YORK, NY 10019","us_nyc-c_htl_a_high2","270","us_nyc-c_htl_a_high2_270"
"trial","survey","59","958566","0.0-2.0-57.0","611b39726e9958645cd37e18","626166b218b78fee4e9d8d4d","6261828658c9c41c1853c9e8","4","8891","","{""P0_Q0"":null,""ambiguous"":3,""objects"":4,""invisible"":1,""chaos"":4}","","","","","","","","","","","","","","","","","[]","Kakezuka Elementary School","ChIJLYvCVhSLGGARQZ0PUiBKWkg","35.6443992","139.714528","JP","TOK","CTR","SCH","4-chōme-21-10 Ebisu, Shibuya City, Tokyo 150-0013, Japan","jp_tok-c_sch_a_4","180","jp_tok-c_sch_a_4_180"
"trial","survey","60","965624","0.0-2.0-58.0","611b39726e9958645cd37e18","626166b218b78fee4e9d8d4d","6261828658c9c41c1853c9e8","4","7044","","{""P0_Q0"":null,""ambiguous"":5,""objects"":5,""invisible"":1,""chaos"":4}","","","","","","","","","","","","","","","","","[]","Nearby location of United States Postal Service (us_nyc-c_pos_a_2)","ChIJtTVWPTz2wokR67Bcx4reZLs","40.8061808","-73.963843","US","NYC","CTR","POS","540 W 114th St, New York, NY 10025, USA","us_nyc-c_pos_b_2","90","us_nyc-c_pos_b_2_90"
"trial","survey","61","981231","0.0-2.0-59.0","611b39726e9958645cd37e18","626166b218b78fee4e9d8d4d","6261828658c9c41c1853c9e8","4","15595","","{""P0_Q0"":null,""ambiguous"":4,""objects"":5,""invisible"":1,""chaos"":3}","","","","","","","","","","","","","","","","","[]","Yotsuya Station Post Office","ChIJM8cHVYqMGGARUz2wtp-skCo","35.6875819","139.7296034","JP","TOK","CTR","POS","Japan, 〒160-0004 Tokyo, Shinjuku City, Yotsuya, 1-chōme−６−１","jp_tok-c_pos_a_3","0","jp_tok-c_pos_a_3_0"
"trial","survey","62","989399","0.0-2.0-60.0","611b39726e9958645cd37e18","626166b218b78fee4e9d8d4d","6261828658c9c41c1853c9e8","4","8145","","{""P0_Q0"":null,""ambiguous"":3,""objects"":5,""invisible"":1,""chaos"":2}","","","","","","","","","","","","","","","","","[]","United States Postal Service","ChIJHz5qxfxEwokRJQRRKHqw9JQ","40.6054665","-73.9794117","US","NYC","PER","POS","1714 W 6th St Ste 1, Brooklyn, NY 11223, USA","us_nyc-p_pos_a_6","0","us_nyc-p_pos_a_6_0"
"trial","survey","63","1012575","0.0-2.0-61.0","611b39726e9958645cd37e18","626166b218b78fee4e9d8d4d","6261828658c9c41c1853c9e8","4","23159","","{""P0_Q0"":null,""ambiguous"":3,""objects"":2,""invisible"":1,""chaos"":2}","","","","","","","","","","","","","","","","","[]","Nearby location of Comfort Inn JFK Airport (us_nyc-p_htl_a_low2)","ChIJ8dO9l21nwokRghi6bJiuq5c","40.6671742","-73.806723","US","NYC","PER","HTL","133-38 135th Ave, Queens, NY 11420, USA","us_nyc-p_htl_b_low2","0","us_nyc-p_htl_b_low2_0"
"trial","survey","64","1024492","0.0-2.0-62.0","611b39726e9958645cd37e18","626166b218b78fee4e9d8d4d","6261828658c9c41c1853c9e8","4","11902","","{""P0_Q0"":null,""ambiguous"":2,""objects"":3,""invisible"":1,""chaos"":1}","","","","","","","","","","","","","","","","","[]","Kakezuka Elementary School","ChIJLYvCVhSLGGARQZ0PUiBKWkg","35.6443992","139.714528","JP","TOK","CTR","SCH","4-chōme-21-10 Ebisu, Shibuya City, Tokyo 150-0013, Japan","jp_tok-c_sch_a_4","90","jp_tok-c_sch_a_4_90"
"trial","survey","65","1032683","0.0-2.0-63.0","611b39726e9958645cd37e18","626166b218b78fee4e9d8d4d","6261828658c9c41c1853c9e8","4","8170","","{""P0_Q0"":null,""ambiguous"":1,""objects"":4,""invisible"":1,""chaos"":2}","","","","","","","","","","","","","","","","","[]","Nearby location of Jingūmae 6 Post Office (jp_tok-c_pos_a_2)","ChIJo2FXfqaMGGARaHWKnjoqihY","35.665387","139.7037685","JP","TOK","CTR","POS","6-chōme-16-6 Jingūmae, Shibuya City, Tokyo 150-0001, Japan","jp_tok-c_pos_b_2","90","jp_tok-c_pos_b_2_90"
"trial","survey","66","1043757","0.0-2.0-64.0","611b39726e9958645cd37e18","626166b218b78fee4e9d8d4d","6261828658c9c41c1853c9e8","4","11057","","{""P0_Q0"":null,""ambiguous"":4,""objects"":2,""invisible"":1,""chaos"":3}","","","","","","","","","","","","","","","","","[]","Nearby location of United States Postal Service (us_nyc-p_pos_a_4)","ChIJQdQ0qElawokRA-jOMdpWwLc","40.6945583","-73.9912686","US","NYC","PER","POS","154 Pierrepont St, Brooklyn, NY 11201, USA","us_nyc-p_pos_b_4","0","us_nyc-p_pos_b_4_0"
"trial","survey","67","1052340","0.0-2.0-65.0","611b39726e9958645cd37e18","626166b218b78fee4e9d8d4d","6261828658c9c41c1853c9e8","4","8569","","{""P0_Q0"":null,""ambiguous"":2,""objects"":3,""invisible"":2,""chaos"":2}","","","","","","","","","","","","","","","","","[]","Nearby location of United States Postal Service (us_nyc-p_pos_a_5)","ChIJAxFT_p70wokRYeihFIw0wFU","40.8546215","-73.8685765","US","NYC","PER","POS","625 Lydig Ave, Bronx, NY 10462, USA","us_nyc-p_pos_b_5","180","us_nyc-p_pos_b_5_180"
"trial","survey","68","1059632","0.0-2.0-66.0","611b39726e9958645cd37e18","626166b218b78fee4e9d8d4d","6261828658c9c41c1853c9e8","4","7271","","{""P0_Q0"":null,""ambiguous"":2,""objects"":1,""invisible"":1,""chaos"":3}","","","","","","","","","","","","","","","","","[]","Nearby location of びわ湖畔リゾート 白浜荘 (jp_hik_htl_a_mid2)","ChIJR-fdOL6aAWARRx-bTY1d8b8","35.3062783","136.038326","JP","HIK","HIK","HTL","2315-3 Adogawachō Shimoogawa, Takashima, Shiga 520-1223, Japan","jp_hik_htl_b_mid2","180","jp_hik_htl_b_mid2_180"
"trial","survey","69","1065087","0.0-2.0-67.0","611b39726e9958645cd37e18","626166b218b78fee4e9d8d4d","6261828658c9c41c1853c9e8","4","5437","","{""P0_Q0"":null,""ambiguous"":5,""objects"":2,""invisible"":2,""chaos"":2}","","","","","","","","","","","","","","","","","[]","Adachi Asahicho Post Office","ChIJwzPq-E2OGGAR94jgKLnB1pg","35.7492042","139.8090847","JP","TOK","PER","POS","27-13 Senjuasahichō, Adachi City, Tokyo 120-0026, Japan","jp_tok-p_pos_a_4","90","jp_tok-p_pos_a_4_90"
"demographics","survey-html-form","70","1077276","0.0-2.0-68.0","611b39726e9958645cd37e18","626166b218b78fee4e9d8d4d","6261828658c9c41c1853c9e8","4","12184","","{""age"":""27"",""gender"":""female"",""gender-self-describe"":"""",""zipcode"":""98661""}","","","","","","","","","","","","","","","","","","","","","","","","","","","","",""
"demographics","survey","71","1094323","0.0-2.0-69.0","611b39726e9958645cd37e18","626166b218b78fee4e9d8d4d","6261828658c9c41c1853c9e8","4","17013","","{""P0_Q0"":null,""outsideUS"":""No"",""outsideUS_years"":""""}","","","","","","","","","","","","","","","","","[]","","","","","","","","","","","",""
"end-survey","survey-text","72","1101463","0.0-2.0-70.0","611b39726e9958645cd37e18","626166b218b78fee4e9d8d4d","6261828658c9c41c1853c9e8","4","7131","","{""Q0"":""No great survey""}","","","","","","","","","","","","","","","","","","","","","","","","","","","","",""
