"task","trial_type","trial_index","time_elapsed","internal_node_id","subject_id","study_id","session_id","group","rt","stimulus","response","width","height","webaudio","browser","browser_version","mobile","os","fullscreen","vsync_rate","webcam","microphone","success","timeout","failed_images","failed_audio","failed_video","accuracy","name","place_id","lat","lng","culture","loc1","loc2","loct","address","loc_id_prev","angle","loc_id"
"pavlovia-init","pavlovia","0","1019","0.0-0.0","60d76140337e60ae26f7fce9","625e209c10a247530e1c6964","625ee95f7836a45e1809a811","9","","","","","","","","","","","","","","","","","","","","","","","","","","","","","","","",""
"consent","html-button-response","1","12731","0.0-1.0","60d76140337e60ae26f7fce9","625e209c10a247530e1c6964","625ee95f7836a45e1809a811","9","11703","
        <div style=""font-size: 80%; max-width:700px"">
            <h2>Informed Consent</h2><br>
        
            <div style=""text-align: left"">
            <h3>Streetscape Perceptions</h3>
            <b>HUM00189138</b>
            <br><hr>
        
            <h4>DESCRIPTION</h4>
            <p>
                In this study, you will view Google Street View images. You will then answer questions about your impressions of the streetscapes presented in those images.
            </p><br>
        
            <h4>TIME INVOLVEMENT</h4>
            <p>Your participation will take approximately 30 minutes.</p><br>
        
            <h4>RISKS AND BENEFITS</h4>
            <p>
                The risks associated with this study are minimal. The benefits which may reasonably be expected to result from this study are none.  We cannot and do not guarantee or promise that you will receive any benefits from this study. 
            </p><br>
        
            <h4>PAYMENTS</h4>
            <p>You will be paid <b>$5.00</b> for your participation.</p><br>
        
            <h4>SUBJECT'S RIGHTS</h4>
            <p>
                If you have read this form and have decided to participate in this project, please understand your participation is voluntary and you have the right to withdraw your consent or discontinue participation at any time without penalty or loss of benefits to which you are otherwise entitled.  The alternative is not to participate.  You have the right to refuse to answer particular questions.  
            </p>
        
            <p>
                Your individual privacy will be maintained in all published and written data resulting from the study. Your responses will be kept confidential: you are given a participant code, and no one, not even the research team, can match that code with your identity. Your collected information may also be shared with other researchers as part of our dataset.
            </p><br>
        
            <h4>CONTACT INFORMATION</h4>
            <p>
                Questions: If you have any questions, concerns or complaints about this research, its procedures, risks and benefits, contact the Protocol Director, Nicholas Camp, npcamp@umich.edu, (443) 851-6783.
            </p>
        
            <p>
                If you have questions about your rights as a research participant, or wish to obtain information, ask questions or discuss any concerns about this study with someone other than the researcher(s), please contact the following:
                <br><br>
        
                University of Michigan<br>
                Health Sciences and Behavioral Sciences Institutional Review Board
                (IRB-HSBS)<br>
                2800 Plymouth Road <br>
                Building 520, Room 1169 <br>
                Ann Arbor, MI 48109-2800 <br>
                Telephone: 734-936-0933 or toll free (866) 936-0933 <br>
                Fax: 734-936-1852 <br />
                E-mail: irbhsbs@umich.edu <br>
            </p>
        
            <p>
                You can also contact the University of Michigan Compliance Hotline at 1-866-990-0111. You may also print this consent form to keep.
            </p>
            <br>
        
            <div class=""alert alert-warning""><b>
                Do you consent to participate in this study? If you consent to participate in this study, please click “Accept and continue.”
            </b></div>
            </div>
        </div>
    ","1","","","","","","","","","","","","","","","","","","","","","","","","","","","","",""
"browser-check","browser-check","2","13752","0.0-2.0-0.0","60d76140337e60ae26f7fce9","625e209c10a247530e1c6964","625ee95f7836a45e1809a811","9","","","","979","1450","true","chrome","100.0.4896","false","Android OS","true","60.48","true","true","","","","","","","","","","","","","","","","","",""
"","preload","3","14615","0.0-2.0-1.0","60d76140337e60ae26f7fce9","625e209c10a247530e1c6964","625ee95f7836a45e1809a811","9","","","","","","","","","","","","","","","true","false","[]","[]","[]","","","","","","","","","","","","",""
"instructions","html-button-response","4","36793","0.0-2.0-2.0","60d76140337e60ae26f7fce9","625e209c10a247530e1c6964","625ee95f7836a45e1809a811","9","22173","
        <div class=""text-container"">
            <h1>Welcome to the study!</h1>
            
            <div class=""text-left"">
                <p>
                    In this study, we are interested in how people think about different Google Street View images. Google Street View takes pictures of streets used for Google Earth and Google Maps. You’ll see Google Street View images of different places and answer some questions about each one.
                </p>
            </div>
            
            <img src='
            https://maps.googleapis.com/maps/api/streetview?size=640x320
            &location=37.783631,-122.432766
            &heading=80
            &pitch=2
            &fov=100
            &radius=150
            &key=AIzaSyC2OxRDg6qlzZDj7j0UAD2XyE0qWokLvvs
            &source=outdoor'>
        
            <br>
        <br>
    ","0","","","","","","","","","","","","","","","","","","","","","","","","","","","","",""
"instructions","html-button-response","5","60254","0.0-2.0-3.0","60d76140337e60ae26f7fce9","625e209c10a247530e1c6964","625ee95f7836a45e1809a811","9","22996","
        <style>
            img.small {
            max-width: 100px;
            }
            li {
            text-indent: 40px;
            }
        </style>

        <div class=""text-container text-left"">
            <p>For each picture, we’d like your impressions of the scene:</p>
            
            <hr>
                Are there <b>clear, distinct boundaries</b> between objects in the scene, or are the <b>boundaries ambiguous or unclear</b>?
                
                <li>clear, distinct boundaries: <img class=""small"" src=""assets/img/ambiguous-low.png""></li>
                <li>ambiguous or unclear boundaries: <img class=""small"" src=""assets/img/ambiguous-high.png""></li>
            <hr>
            <br>
                Are there <b>only a few different objects</b> in the scene, or is there <b>a large number</b>?
            <br><br>
            <hr>
                Are only <b>a few parts</b> of the scene <b>invisible or obscured</b>, or are <b>many parts invisible or obscured</b>?
                
                <li>a few parts invisible or obscured: <img class=""small"" src=""assets/img/invisible-low.png""></li>
                <li>many parts invisible or obscured: <img class=""small"" src=""assets/img/invisible-high.png""></li>
            <hr>
            <br>
                Does the scene look <b>organized</b> or <b>chaotic</b> to you?
            <br><br>
            <hr>
            
            <p>
                There are no right or wrong answers: we are interested in <b>your</b> impression. Note that some images might have individual buildings or faces blurred for privacy. Please ignore these when making your judgments.
            </p>
        </div>
        <br>
    ","0","","","","","","","","","","","","","","","","","","","","","","","","","","","","",""
"instructions","html-button-response","6","73367","0.0-2.0-4.0","60d76140337e60ae26f7fce9","625e209c10a247530e1c6964","625ee95f7836a45e1809a811","9","12948","
        <div class=""text-container text-left"">
            <p>Please make sure you are doing this study in an area where you can focus and complete the survey in one sitting.</p>

            <p>Don’t spend too much time on any one picture, and, again go with your gut impression!</p>
            
            <p>The study should take about 30 minutes. We’ll let you know when you’re halfway through.</p>
        </div>
            
        <h3>Ready? Click next to get started!</h3>
        <br>
    ","0","","","","","","","","","","","","","","","","","","","","","","","","","","","","",""
"trial","survey","7","102002","0.0-2.0-5.0","60d76140337e60ae26f7fce9","625e209c10a247530e1c6964","625ee95f7836a45e1809a811","9","28063","","{""P0_Q0"":null,""ambiguous"":3,""objects"":3,""invisible"":3,""chaos"":3}","","","","","","","","","","","","","","","","","[]","Nearby location of Katsushika Higashishinkoiwa Post Office (jp_tok-p_pos_a_6)","ChIJa0TdeweGGGAR0TN6A1BsN_Y","35.7240323","139.8620652","JP","TOK","PER","POS","3-chōme-15-6 Higashishinkoiwa, Katsushika City, Tokyo 124-0023, Japan","jp_tok-p_pos_b_6","270","jp_tok-p_pos_b_6_270"
"trial","survey","8","121466","0.0-2.0-6.0","60d76140337e60ae26f7fce9","625e209c10a247530e1c6964","625ee95f7836a45e1809a811","9","19373","","{""P0_Q0"":null,""ambiguous"":4,""objects"":4,""invisible"":4,""chaos"":3}","","","","","","","","","","","","","","","","","[]","Nearby location of Oizumi Daini Elementary School (jp_tok-p_sch_a_6)","ChIJMaeqHtruGGARm4LZU_WxHzQ","35.7454686","139.5741349","JP","TOK","PER","SCH","4-chōme-32-2 Minamiōizumi, Nerima City, Tokyo 178-0064, Japan","jp_tok-p_sch_b_6","0","jp_tok-p_sch_b_6_0"
"trial","survey","9","137046","0.0-2.0-7.0","60d76140337e60ae26f7fce9","625e209c10a247530e1c6964","625ee95f7836a45e1809a811","9","15503","","{""P0_Q0"":null,""ambiguous"":4,""objects"":5,""invisible"":4,""chaos"":4}","","","","","","","","","","","","","","","","","[]","Nearby location of William O'Shea Campus (us_nyc-c_sch_a_6)","ChIJpefuOY9YwokR-Pk3vGiQNI4","40.7819913","-73.9762638","US","NYC","CTR","SCH","118 W 79th St, New York, NY 10024, USA","us_nyc-c_sch_b_6","270","us_nyc-c_sch_b_6_270"
"trial","survey","10","151408","0.0-2.0-8.0","60d76140337e60ae26f7fce9","625e209c10a247530e1c6964","625ee95f7836a45e1809a811","9","14297","","{""P0_Q0"":null,""ambiguous"":1,""objects"":3,""invisible"":3,""chaos"":1}","","","","","","","","","","","","","","","","","[]","Mitchell Elementary School","ChIJQYKjOkevPIgRNBcgyKyYsfs","42.2369664","-83.6929474","US","ARB","ARB","SCH","3550 Pittsview Dr, Ann Arbor, MI 48108, USA","us_arb_sch_a_4","0","us_arb_sch_a_4_0"
"trial","survey","11","173798","0.0-2.0-9.0","60d76140337e60ae26f7fce9","625e209c10a247530e1c6964","625ee95f7836a45e1809a811","9","22330","","{""P0_Q0"":null,""ambiguous"":4,""objects"":3,""invisible"":5,""chaos"":4}","","","","","","","","","","","","","","","","","[]","Sakata Elementary School","ChIJVW6XQ3csAmARmDgDxmrtsD8","35.33759","136.289157","JP","HIK","HIK","SCH","508 Ukano, Maibara, Shiga 521-0062, Japan","jp_hik_sch_a_4","180","jp_hik_sch_a_4_180"
"trial","survey","12","188261","0.0-2.0-10.0","60d76140337e60ae26f7fce9","625e209c10a247530e1c6964","625ee95f7836a45e1809a811","9","14384","","{""P0_Q0"":null,""ambiguous"":1,""objects"":1,""invisible"":2,""chaos"":2}","","","","","","","","","","","","","","","","","[]","Nearby location of Daiwa Roynet Hotel Tokyo-Osaki (jp_tok-p_htl_a_low2)","ChIJw8m7kPSKGGAREUfz_puYZs4","35.6168084","139.7277241","JP","TOK","PER","HTL","2-chōme-9-4 Ōsaki, Shinagawa City, Tokyo 141-0032, Japan","jp_tok-p_htl_b_low2","0","jp_tok-p_htl_b_low2_0"
"trial","survey","13","206408","0.0-2.0-11.0","60d76140337e60ae26f7fce9","625e209c10a247530e1c6964","625ee95f7836a45e1809a811","9","18066","","{""P0_Q0"":null,""ambiguous"":2,""objects"":2,""invisible"":2,""chaos"":2}","","","","","","","","","","","","","","","","","[]","Torahime Post Office","ChIJAzu1m54oAmARzqXxALkD3FY","35.4195711","136.2622481","JP","TOR","TOR","POS","160-5 Gomura, Nagahama, Shiga 529-0141, Japan","jp_tor_pos_a_1","270","jp_tor_pos_a_1_270"
"trial","survey","14","224092","0.0-2.0-12.0","60d76140337e60ae26f7fce9","625e209c10a247530e1c6964","625ee95f7836a45e1809a811","9","17606","","{""P0_Q0"":null,""ambiguous"":2,""objects"":2,""invisible"":2,""chaos"":2}","","","","","","","","","","","","","","","","","[]","United States Postal Service","ChIJHz5qxfxEwokRJQRRKHqw9JQ","40.6054665","-73.9794117","US","NYC","PER","POS","1714 W 6th St Ste 1, Brooklyn, NY 11223, USA","us_nyc-p_pos_a_6","270","us_nyc-p_pos_a_6_270"
"trial","survey","15","243123","0.0-2.0-13.0","60d76140337e60ae26f7fce9","625e209c10a247530e1c6964","625ee95f7836a45e1809a811","9","18953","","{""P0_Q0"":null,""ambiguous"":3,""objects"":2,""invisible"":2,""chaos"":3}","","","","","","","","","","","","","","","","","[]","びわ湖畔リゾート 白浜荘","ChIJIeJgVfibAWAR-Jd7lsdIM-M","35.3054063","136.0367666","JP","HIK","HIK","HTL","2300-1 Adogawachō Shimoogawa, Takashima, Shiga 520-1223, Japan","jp_hik_htl_a_mid2","180","jp_hik_htl_a_mid2_180"
"trial","survey","16","257840","0.0-2.0-14.0","60d76140337e60ae26f7fce9","625e209c10a247530e1c6964","625ee95f7836a45e1809a811","9","14621","","{""P0_Q0"":null,""ambiguous"":3,""objects"":2,""invisible"":3,""chaos"":2}","","","","","","","","","","","","","","","","","[]","Nearby location of The Westin Tokyo (jp_tok-p_htl_a_high2)","ChIJrVZsu8CLGGARMYSk3wOv6Fk","35.6401336","139.7167882","JP","TOK","PER","HTL","Japan, 〒141-0021 Tokyo, Shinagawa City, Kamiōsaki, 2-chōme−3−３０ イトーピア長者丸ＩＤＥＡ","jp_tok-p_htl_b_high2","180","jp_tok-p_htl_b_high2_180"
"trial","survey","17","274244","0.0-2.0-15.0","60d76140337e60ae26f7fce9","625e209c10a247530e1c6964","625ee95f7836a45e1809a811","9","16323","","{""P0_Q0"":null,""ambiguous"":2,""objects"":2,""invisible"":2,""chaos"":1}","","","","","","","","","","","","","","","","","[]","Nearby location of Shinshuku Elementary School (jp_tok-p_sch_a_2)","ChIJQemZKVlgGGARmLFMYv3EENc","35.5584586","139.7170675","JP","TOK","PER","SCH","Japan, 〒144-0053 Tokyo, Ota City, Kamatahonchō, 1-chōme−2−５ ＮＴＴ蒲田ビル","jp_tok-p_sch_b_2","180","jp_tok-p_sch_b_2_180"
"trial","survey","18","280804","0.0-2.0-16.0","60d76140337e60ae26f7fce9","625e209c10a247530e1c6964","625ee95f7836a45e1809a811","9","6484","","{""P0_Q0"":null,""ambiguous"":1,""objects"":1,""invisible"":1,""chaos"":1}","","","","","","","","","","","","","","","","","[]","USPS Bayside Carrier Annex","ChIJKfnG5OFhwokRDpTOYU_3G4g","40.7633707","-73.7662444","US","NYC","PER","POS","41-29 216th St, Bayside, NY 11361, USA","us_nyc-p_pos_a_1","270","us_nyc-p_pos_a_1_270"
"trial","survey","19","294837","0.0-2.0-17.0","60d76140337e60ae26f7fce9","625e209c10a247530e1c6964","625ee95f7836a45e1809a811","9","13955","","{""P0_Q0"":null,""ambiguous"":4,""objects"":2,""invisible"":3,""chaos"":2}","","","","","","","","","","","","","","","","","[]","Jingūmae 6 Post Office","ChIJO43ODKSMGGAR5KiNqtge1mc","35.6666411","139.7050847","JP","TOK","CTR","POS","6-chōme-12-28 Jingūmae, Shibuya City, Tokyo 150-0001, Japan","jp_tok-c_pos_a_2","90","jp_tok-c_pos_a_2_90"
"trial","survey","20","311886","0.0-2.0-18.0","60d76140337e60ae26f7fce9","625e209c10a247530e1c6964","625ee95f7836a45e1809a811","9","16978","","{""P0_Q0"":null,""ambiguous"":5,""objects"":2,""invisible"":5,""chaos"":2}","","","","","","","","","","","","","","","","","[]","Jittered SV for Nearby location of Hotel Villa Fontaine Nihombashi-Hakozaki (jp_tok-c_htl_a_low1) (jp_tok-c_htl_b_low1)","ChIJcZnDxKeJGGARHOldLPKzIl8","35.6825421","139.7856265","JP","TOK","CTR","HTL","Japan, 〒103-0014 Tokyo, Chuo City, Nihonbashikakigarachō, 2-chōme−2−２ 関口ビル","jp_tok-c_htl_b_low1","270","jp_tok-c_htl_b_low1_270"
"trial","survey","21","327292","0.0-2.0-19.0","60d76140337e60ae26f7fce9","625e209c10a247530e1c6964","625ee95f7836a45e1809a811","9","15328","","{""P0_Q0"":null,""ambiguous"":2,""objects"":2,""invisible"":3,""chaos"":2}","","","","","","","","","","","","","","","","","[]","HOTEL K5","DSTYOKHO","35.68271","139.77801","JP","TOK","CTR","HTL","3-5 NIHOMBASHI KABUTOCHO, TOKYO 103-0026","jp_tok-c_htl_a_mid1","90","jp_tok-c_htl_a_mid1_90"
"trial","survey","22","340775","0.0-2.0-20.0","60d76140337e60ae26f7fce9","625e209c10a247530e1c6964","625ee95f7836a45e1809a811","9","13413","","{""P0_Q0"":null,""ambiguous"":4,""objects"":2,""invisible"":3,""chaos"":2}","","","","","","","","","","","","","","","","","[]","Nearby location of Kotō 3rd Elementary School (jp_hik_sch_a_3)","ChIJLZ0mLuzXA2ARkBmZe7KxZ-s","35.1317714","136.2240495","JP","HIK","HIK","SCH","2191-2 Kotakarichō, Higashiomi, Shiga 527-0125, Japan","jp_hik_sch_b_3","0","jp_hik_sch_b_3_0"
"trial","survey","23","347434","0.0-2.0-21.0","60d76140337e60ae26f7fce9","625e209c10a247530e1c6964","625ee95f7836a45e1809a811","9","6579","","{""P0_Q0"":null,""ambiguous"":1,""objects"":1,""invisible"":1,""chaos"":1}","","","","","","","","","","","","","","","","","[]","Nearby location of Red Roof PLUS Ann Arbor-Univ North (us_arb_htl_a_low1)","ChIJDRKdQxqsPIgRu07gYIBr9Ds","42.3074995","-83.6914727","US","ARB","ARB","HTL","2310 Green Rd, Ann Arbor, MI 48105, USA","us_arb_htl_b_low1","90","us_arb_htl_b_low1_90"
"trial","survey","24","358070","0.0-2.0-22.0","60d76140337e60ae26f7fce9","625e209c10a247530e1c6964","625ee95f7836a45e1809a811","9","10564","","{""P0_Q0"":null,""ambiguous"":2,""objects"":2,""invisible"":2,""chaos"":1}","","","","","","","","","","","","","","","","","[]","Waseda Daigaku-mae Post Office","ChIJT2M2MgONGGARQWhBX_HTPFY","35.7080144","139.7220286","JP","HIK","HIK","POS","Japan, 〒162-0041 東京都新宿区早稲田鶴巻町５３３","jp_hik_pos_a_4","0","jp_hik_pos_a_4_0"
"trial","survey","25","371717","0.0-2.0-23.0","60d76140337e60ae26f7fce9","625e209c10a247530e1c6964","625ee95f7836a45e1809a811","9","13570","","{""P0_Q0"":null,""ambiguous"":3,""objects"":2,""invisible"":3,""chaos"":1}","","","","","","","","","","","","","","","","","[]","Nearby location of United States Postal Service (us_nyc-c_pos_a_2)","ChIJtTVWPTz2wokR67Bcx4reZLs","40.8061808","-73.963843","US","NYC","CTR","POS","540 W 114th St, New York, NY 10025, USA","us_nyc-c_pos_b_2","180","us_nyc-c_pos_b_2_180"
"trial","survey","26","385200","0.0-2.0-24.0","60d76140337e60ae26f7fce9","625e209c10a247530e1c6964","625ee95f7836a45e1809a811","9","13419","","{""P0_Q0"":null,""ambiguous"":4,""objects"":2,""invisible"":2,""chaos"":2}","","","","","","","","","","","","","","","","","[]","Nearby location of United States Postal Service (us_nyc-c_pos_a_7)","ChIJjVTn2xD2wokRxjWBnF0UGVg","40.8023565","-73.9528115","US","NYC","CTR","POS","113 St Nicholas Ave, New York, NY 10026, USA","us_nyc-c_pos_b_7","0","us_nyc-c_pos_b_7_0"
"trial","survey","27","528937","0.0-2.0-25.0","60d76140337e60ae26f7fce9","625e209c10a247530e1c6964","625ee95f7836a45e1809a811","9","143662","","{""P0_Q0"":null,""ambiguous"":2,""objects"":2,""invisible"":2,""chaos"":1}","","","","","","","","","","","","","","","","","[]","United States Postal Service","ChIJt9iTcDz2wokR8BrJr4TbjWQ","40.8049683","-73.9649034","US","NYC","CTR","POS","534 W 112th St, New York, NY 10025, USA","us_nyc-c_pos_a_2","180","us_nyc-c_pos_a_2_180"
"trial","survey","28","542421","0.0-2.0-26.0","60d76140337e60ae26f7fce9","625e209c10a247530e1c6964","625ee95f7836a45e1809a811","9","13409","","{""P0_Q0"":null,""ambiguous"":4,""objects"":2,""invisible"":2,""chaos"":1}","","","","","","","","","","","","","","","","","[]","Tokyo Marriott Hotel","MCTYOMCM","35.62207","139.73696","JP","TOK","PER","HTL","4-7-36 KITASHINAGAWA SHINAGAWA, TOKYO 140-0001","jp_tok-p_htl_a_high1","0","jp_tok-p_htl_a_high1_0"
"trial","survey","29","554835","0.0-2.0-27.0","60d76140337e60ae26f7fce9","625e209c10a247530e1c6964","625ee95f7836a45e1809a811","9","12319","","{""P0_Q0"":null,""ambiguous"":5,""objects"":2,""invisible"":1,""chaos"":1}","","","","","","","","","","","","","","","","","[]","Nearby location of Shinshuku Elementary School (jp_tok-p_sch_a_2)","ChIJQemZKVlgGGARmLFMYv3EENc","35.5584586","139.7170675","JP","TOK","PER","SCH","Japan, 〒144-0053 Tokyo, Ota City, Kamatahonchō, 1-chōme−2−５ ＮＴＴ蒲田ビル","jp_tok-p_sch_b_2","90","jp_tok-p_sch_b_2_90"
"trial","survey","30","588348","0.0-2.0-28.0","60d76140337e60ae26f7fce9","625e209c10a247530e1c6964","625ee95f7836a45e1809a811","9","33438","","{""P0_Q0"":null,""ambiguous"":1,""objects"":2,""invisible"":1,""chaos"":1}","","","","","","","","","","","","","","","","","[]","Nearby location of Nakano Sun Cuore Post Office (jp_tok-p_pos_a_2)","ChIJ_6f_XpryGGARylU0pXEPcbM","35.7102066","139.6632353","JP","TOK","PER","POS","2-chōme-30-7 Arai, Nakano City, Tokyo 165-0026, Japan","jp_tok-p_pos_b_2","180","jp_tok-p_pos_b_2_180"
"trial","survey","31","602077","0.0-2.0-29.0","60d76140337e60ae26f7fce9","625e209c10a247530e1c6964","625ee95f7836a45e1809a811","9","13673","","{""P0_Q0"":null,""ambiguous"":1,""objects"":2,""invisible"":1,""chaos"":1}","","","","","","","","","","","","","","","","","[]","Kasai Station Post Office","ChIJY2FCCu2HGGARFTMPVij0n94","35.6656728","139.8727342","JP","HIK","HIK","POS","3-chōme-29-19 Nakakasai, Edogawa City, Tokyo 134-0083, Japan","jp_hik_pos_a_1","270","jp_hik_pos_a_1_270"
"trial","survey","32","613153","0.0-2.0-30.0","60d76140337e60ae26f7fce9","625e209c10a247530e1c6964","625ee95f7836a45e1809a811","9","11007","","{""P0_Q0"":null,""ambiguous"":2,""objects"":4,""invisible"":4,""chaos"":1}","","","","","","","","","","","","","","","","","[]","Nearby location of The Pearl NYC (us_nyc-c_htl_a_high1)","ChIJH25PJ-dZwokRj_-5BHZLdE0","40.7600987","-73.9843757","US","NYC","CTR","HTL","1596 Broadway, New York, NY 10019, USA","us_nyc-c_htl_b_high1","270","us_nyc-c_htl_b_high1_270"
"trial","survey","33","624465","0.0-2.0-31.0","60d76140337e60ae26f7fce9","625e209c10a247530e1c6964","625ee95f7836a45e1809a811","9","11237","","{""P0_Q0"":null,""ambiguous"":5,""objects"":2,""invisible"":4,""chaos"":2}","","","","","","","","","","","","","","","","","[]","Comfort Inn JFK Airport","CINYC672","40.66585","-73.80762","US","NYC","PER","HTL","132-15 NASSAU EXPRESSWAY, JAMAICA, NY 11430","us_nyc-p_htl_a_low2","270","us_nyc-p_htl_a_low2_270"
"trial","survey","34","638303","0.0-2.0-32.0","60d76140337e60ae26f7fce9","625e209c10a247530e1c6964","625ee95f7836a45e1809a811","9","13760","","{""P0_Q0"":null,""ambiguous"":1,""objects"":4,""invisible"":1,""chaos"":1}","","","","","","","","","","","","","","","","","[]","Guidepost Montessori at Museum Mile","ChIJM_EqNF5ZwokRqGSOTYl-ARs","40.7764017","-73.9629479","US","NYC","CTR","SCH","12 E 79th St, New York, NY 10075, USA","us_nyc-c_sch_a_7","90","us_nyc-c_sch_a_7_90"
"trial","survey","35","651931","0.0-2.0-33.0","60d76140337e60ae26f7fce9","625e209c10a247530e1c6964","625ee95f7836a45e1809a811","9","13553","","{""P0_Q0"":null,""ambiguous"":1,""objects"":3,""invisible"":1,""chaos"":1}","","","","","","","","","","","","","","","","","[]","Mercer Hotel","WVNYCMER","40.72603","-73.99856","US","NYC","CTR","HTL","147 MERCER STREET , NEW YORK, NY 10012","us_nyc-c_htl_a_ultra2","180","us_nyc-c_htl_a_ultra2_180"
"trial","survey","36","659284","0.0-2.0-34.0","60d76140337e60ae26f7fce9","625e209c10a247530e1c6964","625ee95f7836a45e1809a811","9","7273","","{""P0_Q0"":null,""ambiguous"":1,""objects"":1,""invisible"":1,""chaos"":1}","","","","","","","","","","","","","","","","","[]","Nearby location of United States Postal Service (us_arb_pos_a_3)","GhIJwCSVKeYbRUARAUenU8PnVMA","42.2179615","-83.6212968","US","ARB","ARB","POS","699H+5F Ypsilanti Charter Township, MI, USA","us_arb_pos_b_3","270","us_arb_pos_b_3_270"
"trial","survey","37","664777","0.0-2.0-35.0","60d76140337e60ae26f7fce9","625e209c10a247530e1c6964","625ee95f7836a45e1809a811","9","5428","","{""P0_Q0"":null,""ambiguous"":1,""objects"":1,""invisible"":1,""chaos"":1}","","","","","","","","","","","","","","","","","[]","Jittered SV for Aman Tokyo (jp_tok-c_htl_a_ultra1)","ChIJVVWFvviLGGARpWS-yu8uP1k","35.6853286","139.7666855","JP","TOK","CTR","HTL","2-chōme-2-1 Ōtemachi, Chiyoda City, Tokyo 100-0004, Japan","jp_tok-c_htl_a_ultra1","180","jp_tok-c_htl_a_ultra1_180"
"trial","survey","38","670159","0.0-2.0-36.0","60d76140337e60ae26f7fce9","625e209c10a247530e1c6964","625ee95f7836a45e1809a811","9","5304","","{""P0_Q0"":null,""ambiguous"":1,""objects"":1,""invisible"":1,""chaos"":1}","","","","","","","","","","","","","","","","","[]","Nearby location of Setagaya Okamoto Post Office (jp_tok-p_pos_a_1)","ChIJAVgBafjzGGAR0HytC8xomug","35.6274419","139.618016","JP","TOK","PER","POS","1-chōme-37-3 Okamoto, Setagaya City, Tokyo 157-0076, Japan","jp_tok-p_pos_b_1","90","jp_tok-p_pos_b_1_90"
"trial","survey","39","679575","0.0-2.0-37.0","60d76140337e60ae26f7fce9","625e209c10a247530e1c6964","625ee95f7836a45e1809a811","9","9339","","{""P0_Q0"":null,""ambiguous"":1,""objects"":2,""invisible"":1,""chaos"":1}","","","","","","","","","","","","","","","","","[]","Nearby location of ORCHARD STREET HOTEL (us_nyc-c_htl_a_low1)","ChIJ8TquxYZZwokRPgCEBRlBnXM","40.7198222","-73.9898421","US","NYC","CTR","HTL","130 Allen St, New York, NY 10002, USA","us_nyc-c_htl_b_low1","180","us_nyc-c_htl_b_low1_180"
"trial","survey","40","690754","0.0-2.0-38.0","60d76140337e60ae26f7fce9","625e209c10a247530e1c6964","625ee95f7836a45e1809a811","9","11108","","{""P0_Q0"":null,""ambiguous"":2,""objects"":1,""invisible"":1,""chaos"":1}","","","","","","","","","","","","","","","","","[]","Nearby location of Hilton Garden Inn New York/Manhattan-Midtown East (us_nyc-c_htl_a_low2)","ChIJp7rOeORYwokR0fuDKJJiHkw","40.7579935","-73.9679168","US","NYC","CTR","HTL","223 E 54th St, New York, NY 10022, USA","us_nyc-c_htl_b_low2","180","us_nyc-c_htl_b_low2_180"
"trial","survey","41","702835","0.0-2.0-39.0","60d76140337e60ae26f7fce9","625e209c10a247530e1c6964","625ee95f7836a45e1809a811","9","12005","","{""P0_Q0"":null,""ambiguous"":3,""objects"":4,""invisible"":3,""chaos"":1}","","","","","","","","","","","","","","","","","[]","United States Postal Service","ChIJ00vgwVlDwokRCNivb7JW25o","40.6153779","-73.9292541","US","NYC","PER","POS","2222 Flatbush Ave, Brooklyn, NY 11234, USA","us_nyc-p_pos_a_3","180","us_nyc-p_pos_a_3_180"
"attention-check","survey","42","708740","0.0-2.0-40.0","60d76140337e60ae26f7fce9","625e209c10a247530e1c6964","625ee95f7836a45e1809a811","9","5834","","{""P0_Q0"":null,""ambiguous"":null,""objects"":null,""invisible"":null,""chaos"":null}","","","","","","","","","","","","","","","","","[]","","","","","","","","","","","",""
"half-way","html-button-response","43","724512","0.0-2.0-41.0","60d76140337e60ae26f7fce9","625e209c10a247530e1c6964","625ee95f7836a45e1809a811","9","null","
            <h3>You are now half way through the study.</h3>
            <p>Please take a quick, 15-second break before you continue.</p>
            <img src='assets/img/countdown-15.gif'>
            <p>The study will automatically advance forward after the countdown is complete. However, you may click ""Next"" to advance forward now if you wish.</p>
        ","null","","","","","","","","","","","","","","","","","","","","","","","","","","","","",""
"trial","survey","44","736216","0.0-2.0-42.0","60d76140337e60ae26f7fce9","625e209c10a247530e1c6964","625ee95f7836a45e1809a811","9","11600","","{""P0_Q0"":null,""ambiguous"":4,""objects"":3,""invisible"":4,""chaos"":2}","","","","","","","","","","","","","","","","","[]","Nearby location of Tokyo High Court Post Office (jp_tok-c_pos_a_1)","ChIJX7W2HiiLGGARCTbu8qla3Mw","35.6737726","139.7542634","JP","TOK","CTR","POS","1 Hibiyakoen, Chiyoda City, Tokyo 100-0012, Japan","jp_tok-c_pos_b_1","0","jp_tok-c_pos_b_1_0"
"trial","survey","45","745477","0.0-2.0-43.0","60d76140337e60ae26f7fce9","625e209c10a247530e1c6964","625ee95f7836a45e1809a811","9","9200","","{""P0_Q0"":null,""ambiguous"":3,""objects"":4,""invisible"":2,""chaos"":1}","","","","","","","","","","","","","","","","","[]","びわ湖畔リゾート 白浜荘","ChIJIeJgVfibAWAR-Jd7lsdIM-M","35.3054063","136.0367666","JP","HIK","HIK","HTL","2300-1 Adogawachō Shimoogawa, Takashima, Shiga 520-1223, Japan","jp_hik_htl_a_mid2","270","jp_hik_htl_a_mid2_270"
"trial","survey","46","756913","0.0-2.0-44.0","60d76140337e60ae26f7fce9","625e209c10a247530e1c6964","625ee95f7836a45e1809a811","9","11356","","{""P0_Q0"":null,""ambiguous"":2,""objects"":2,""invisible"":1,""chaos"":1}","","","","","","","","","","","","","","","","","[]","Math, Language and Art Elementary Math Algebra I & II Geometry PreCalculus Calculus College Math Data Analysis","ChIJt2b18g9gwokRk8pPfW8GOkc","40.762569","-73.8314318","US","NYC","PER","SCH","123 Main St, Flushing, NY 11354, USA","us_nyc-p_sch_a_2","90","us_nyc-p_sch_a_2_90"
"trial","survey","47","761877","0.0-2.0-45.0","60d76140337e60ae26f7fce9","625e209c10a247530e1c6964","625ee95f7836a45e1809a811","9","4884","","{""P0_Q0"":null,""ambiguous"":1,""objects"":1,""invisible"":1,""chaos"":1}","","","","","","","","","","","","","","","","","[]","United States Postal Service","ChIJS0NV70lawokRJtOpGTdtCiU","40.6959073","-73.9899798","US","NYC","PER","POS","271 Cadman Plaza E Ste 2, Brooklyn, NY 11201, USA","us_nyc-p_pos_a_4","180","us_nyc-p_pos_a_4_180"
"trial","survey","48","774631","0.0-2.0-46.0","60d76140337e60ae26f7fce9","625e209c10a247530e1c6964","625ee95f7836a45e1809a811","9","12667","","{""P0_Q0"":null,""ambiguous"":3,""objects"":3,""invisible"":3,""chaos"":2}","","","","","","","","","","","","","","","","","[]","須賀谷温泉","ChIJ_4AJx3YmAmARdbO9N7D3Ofo","35.454895","136.281751","JP","TOR","TOR","HTL","36 Sugatanichō, Nagahama, Shiga 526-0277, Japan","jp_tor_htl_a_high1","0","jp_tor_htl_a_high1_0"
"trial","survey","49","783233","0.0-2.0-47.0","60d76140337e60ae26f7fce9","625e209c10a247530e1c6964","625ee95f7836a45e1809a811","9","8546","","{""P0_Q0"":null,""ambiguous"":3,""objects"":2,""invisible"":2,""chaos"":2}","","","","","","","","","","","","","","","","","[]","United States Postal Service","ChIJ7bddbC9ZwokRPh32cXCjIis","40.7414054","-74.0067214","US","NYC","CTR","POS","426A W 14th St, New York, NY 10014, USA","us_nyc-c_pos_a_8","0","us_nyc-c_pos_a_8_0"
"trial","survey","50","795788","0.0-2.0-48.0","60d76140337e60ae26f7fce9","625e209c10a247530e1c6964","625ee95f7836a45e1809a811","9","12485","","{""P0_Q0"":null,""ambiguous"":2,""objects"":2,""invisible"":2,""chaos"":2}","","","","","","","","","","","","","","","","","[]","台東小学校跡","ChIJPzL6D6mPGGAROc_ZDczQMBw","35.7231123","139.7860147","JP","TOK","CTR","SCH","3-chōme-1-30 Shitaya, Taito City, Tokyo 110-0004, Japan","jp_tok-c_sch_a_1","270","jp_tok-c_sch_a_1_270"
"trial","survey","51","806989","0.0-2.0-49.0","60d76140337e60ae26f7fce9","625e209c10a247530e1c6964","625ee95f7836a45e1809a811","9","11126","","{""P0_Q0"":null,""ambiguous"":5,""objects"":2,""invisible"":4,""chaos"":2}","","","","","","","","","","","","","","","","","[]","Nearby location of Nakano Shirasagi Post Office (jp_tok-p_pos_a_3)","ChIJAX-SVZHtGGARmipALMOfEzw","35.7202777","139.6350482","JP","TOK","PER","POS","T&Ns, 2-chōme-37-3 Shirasagi, Nakano City, Tokyo 165-0035, Japan","jp_tok-p_pos_b_3","0","jp_tok-p_pos_b_3_0"
"trial","survey","52","818067","0.0-2.0-50.0","60d76140337e60ae26f7fce9","625e209c10a247530e1c6964","625ee95f7836a45e1809a811","9","11020","","{""P0_Q0"":null,""ambiguous"":2,""objects"":3,""invisible"":1,""chaos"":1}","","","","","","","","","","","","","","","","","[]","Nearby location of Yotsuya Station Post Office (jp_tok-c_pos_a_3)","ChIJ5QGWpIuMGGARM3syjI6N6t8","35.6864179","139.7285004","JP","TOK","CTR","POS","1-chōme-8-3 Yotsuya, Shinjuku City, Tokyo 160-0004, Japan","jp_tok-c_pos_b_3","180","jp_tok-c_pos_b_3_180"
"trial","survey","53","832413","0.0-2.0-51.0","60d76140337e60ae26f7fce9","625e209c10a247530e1c6964","625ee95f7836a45e1809a811","9","14283","","{""P0_Q0"":null,""ambiguous"":2,""objects"":2,""invisible"":2,""chaos"":2}","","","","","","","","","","","","","","","","","[]","The Baltic House","XTNYC653","40.682","-73.985","US","NYC","PER","HTL","489 BALTIC STREET, BROOKLYN, NY 11217","us_nyc-p_htl_a_mid1","180","us_nyc-p_htl_a_mid1_180"
"trial","survey","54","843420","0.0-2.0-52.0","60d76140337e60ae26f7fce9","625e209c10a247530e1c6964","625ee95f7836a45e1809a811","9","10952","","{""P0_Q0"":null,""ambiguous"":5,""objects"":4,""invisible"":4,""chaos"":4}","","","","","","","","","","","","","","","","","[]","Jittered SV for The Tokyo Station Hotel (jp_tok-c_htl_a_high2)","ChIJC3Cf2PuLGGAROO00ukl8JwA","35.6812362","139.7671248","JP","TOK","CTR","HTL","Tokyo Station, 1-chōme-9 Marunouchi, Chiyoda City, Tokyo 100-0005, Japan","jp_tok-c_htl_a_high2","270","jp_tok-c_htl_a_high2_270"
"trial","survey","55","853675","0.0-2.0-53.0","60d76140337e60ae26f7fce9","625e209c10a247530e1c6964","625ee95f7836a45e1809a811","9","10181","","{""P0_Q0"":null,""ambiguous"":3,""objects"":2,""invisible"":2,""chaos"":2}","","","","","","","","","","","","","","","","","[]","Nearby location of Daiwa Roynet Hotel Tokyo-Osaki (jp_tok-p_htl_a_low2)","ChIJw8m7kPSKGGAREUfz_puYZs4","35.6168084","139.7277241","JP","TOK","PER","HTL","2-chōme-9-4 Ōsaki, Shinagawa City, Tokyo 141-0032, Japan","jp_tok-p_htl_b_low2","180","jp_tok-p_htl_b_low2_180"
"trial","survey","56","859278","0.0-2.0-54.0","60d76140337e60ae26f7fce9","625e209c10a247530e1c6964","625ee95f7836a45e1809a811","9","5543","","{""P0_Q0"":null,""ambiguous"":1,""objects"":1,""invisible"":1,""chaos"":1}","","","","","","","","","","","","","","","","","[]","Nearby location of Nerima Sakuradai Post Office (jp_tok-p_pos_a_5)","ChIJlUrhPw3tGGARYz3NEa-AcSY","35.7359141","139.6591792","JP","TOK","PER","POS","Japan, 〒176-0012 Tokyo, Nerima City, Toyotamakita, 4-chōme−12−６ 岡野マンション","jp_tok-p_pos_b_5","180","jp_tok-p_pos_b_5_180"
"trial","survey","57","866337","0.0-2.0-55.0","60d76140337e60ae26f7fce9","625e209c10a247530e1c6964","625ee95f7836a45e1809a811","9","6980","","{""P0_Q0"":null,""ambiguous"":3,""objects"":1,""invisible"":1,""chaos"":2}","","","","","","","","","","","","","","","","","[]","South Meadows Elementary School","ChIJQaIiMqnOPIgRKzWLjS6IoXg","42.3121005","-84.0238583","US","CHL","CHL","SCH","335 Pierce St, Chelsea, MI 48118, USA","us_chl_sch_a_1","0","us_chl_sch_a_1_0"
"trial","survey","58","873152","0.0-2.0-56.0","60d76140337e60ae26f7fce9","625e209c10a247530e1c6964","625ee95f7836a45e1809a811","9","6742","","{""P0_Q0"":null,""ambiguous"":3,""objects"":2,""invisible"":2,""chaos"":2}","","","","","","","","","","","","","","","","","[]","Ann Arbor Hills Child Development Center","ChIJe87tMeKuPIgRVFWuWyeOdBY","42.2629596","-83.7044284","US","ARB","ARB","SCH","2775 Bedford Rd, Ann Arbor, MI 48104, USA","us_arb_sch_a_1","180","us_arb_sch_a_1_180"
"trial","survey","59","879693","0.0-2.0-57.0","60d76140337e60ae26f7fce9","625e209c10a247530e1c6964","625ee95f7836a45e1809a811","9","6469","","{""P0_Q0"":null,""ambiguous"":3,""objects"":2,""invisible"":2,""chaos"":2}","","","","","","","","","","","","","","","","","[]","Nearby location of 豊島区立朝日小学校 ひいらぎ学級 (jp_tok-c_sch_a_2)","ChIJsX5PhoGNGGARkg3BIt6IYKg","35.7421166","139.7340459","JP","TOK","CTR","SCH","4-chōme-57-10 Nishigahara, Kita City, Tokyo 114-0024, Japan","jp_tok-c_sch_b_2","180","jp_tok-c_sch_b_2_180"
"trial","survey","60","885430","0.0-2.0-58.0","60d76140337e60ae26f7fce9","625e209c10a247530e1c6964","625ee95f7836a45e1809a811","9","5672","","{""P0_Q0"":null,""ambiguous"":3,""objects"":3,""invisible"":4,""chaos"":3}","","","","","","","","","","","","","","","","","[]","Nakano Sun Cuore Post Office","ChIJcTw2u5DyGGAReXXGTvjxlhw","35.7089211","139.6647475","JP","TOK","PER","POS","Japan, 〒164-0001 Tokyo, Nakano City, Nakano, 4-chōme−3−１ 地下１階","jp_tok-p_pos_a_2","270","jp_tok-p_pos_a_2_270"
"trial","survey","61","893354","0.0-2.0-59.0","60d76140337e60ae26f7fce9","625e209c10a247530e1c6964","625ee95f7836a45e1809a811","9","7848","","{""P0_Q0"":null,""ambiguous"":3,""objects"":2,""invisible"":2,""chaos"":2}","","","","","","","","","","","","","","","","","[]","United States Postal Service","ChIJRXiunQP0wokRdMaoXdky9Do","40.8589783","-73.9311402","US","NYC","CTR","POS","4558 Broadway, New York, NY 10040, USA","us_nyc-c_pos_a_5","180","us_nyc-c_pos_a_5_180"
"trial","survey","62","901723","0.0-2.0-60.0","60d76140337e60ae26f7fce9","625e209c10a247530e1c6964","625ee95f7836a45e1809a811","9","8297","","{""P0_Q0"":null,""ambiguous"":1,""objects"":1,""invisible"":1,""chaos"":1}","","","","","","","","","","","","","","","","","[]","TownePlace Suites by Marriott Ann Arbor","TOARBTPT","42.23796","-83.74932","US","ARB","ARB","HTL","1301 BRIARWOOD CIRCLE DR, ANN ARBOR, MI 48108","us_arb_htl_a_mid1","90","us_arb_htl_a_mid1_90"
"trial","survey","63","909361","0.0-2.0-61.0","60d76140337e60ae26f7fce9","625e209c10a247530e1c6964","625ee95f7836a45e1809a811","9","7560","","{""P0_Q0"":null,""ambiguous"":3,""objects"":2,""invisible"":2,""chaos"":2}","","","","","","","","","","","","","","","","","[]","Nearby location of Nagahama Shiritsu Torahime Elementary School (jp_tor_sch_a_1)","ChIJfT7yNZ8oAmAROTHUpaMv9Ak","35.419735","136.265362","JP","TOR","TOR","SCH","2410 Miyabechō, Nagahama, Shiga 529-0112, Japan","jp_tor_sch_b_1","90","jp_tor_sch_b_1_90"
"trial","survey","64","915378","0.0-2.0-62.0","60d76140337e60ae26f7fce9","625e209c10a247530e1c6964","625ee95f7836a45e1809a811","9","5940","","{""P0_Q0"":null,""ambiguous"":2,""objects"":3,""invisible"":2,""chaos"":2}","","","","","","","","","","","","","","","","","[]","The Williamsburg Hotel","WVNYCTWH","40.72173","-73.95801","US","NYC","PER","HTL","96 WYTHE AVENUE, BROOKLYN, NY 11249","us_nyc-p_htl_a_high1","90","us_nyc-p_htl_a_high1_90"
"trial","survey","65","922943","0.0-2.0-63.0","60d76140337e60ae26f7fce9","625e209c10a247530e1c6964","625ee95f7836a45e1809a811","9","7490","","{""P0_Q0"":null,""ambiguous"":4,""objects"":2,""invisible"":3,""chaos"":2}","","","","","","","","","","","","","","","","","[]","Toshima Minami-Nagasaki Post Office","ChIJjbRx2KnyGGARYqMHBr_HSX0","35.7264975","139.6842311","JP","TOK","CTR","POS","4-chōme-27-5 Minaminagasaki, Toshima City, Tokyo 171-0052, Japan","jp_tok-c_pos_a_4","180","jp_tok-c_pos_a_4_180"
"trial","survey","66","930283","0.0-2.0-64.0","60d76140337e60ae26f7fce9","625e209c10a247530e1c6964","625ee95f7836a45e1809a811","9","7286","","{""P0_Q0"":null,""ambiguous"":1,""objects"":1,""invisible"":1,""chaos"":1}","","","","","","","","","","","","","","","","","[]","United States Postal Service","ChIJQ1Dpq1hYwokRhUTtnxqbRIw","40.7696441","-73.9833283","US","NYC","CTR","POS","27 W 60th St, New York, NY 10023, USA","us_nyc-c_pos_a_6","270","us_nyc-c_pos_a_6_270"
"trial","survey","67","935924","0.0-2.0-65.0","60d76140337e60ae26f7fce9","625e209c10a247530e1c6964","625ee95f7836a45e1809a811","9","5563","","{""P0_Q0"":null,""ambiguous"":1,""objects"":1,""invisible"":1,""chaos"":1}","","","","","","","","","","","","","","","","","[]","Mitchell Elementary School","ChIJQYKjOkevPIgRNBcgyKyYsfs","42.2369664","-83.6929474","US","ARB","ARB","SCH","3550 Pittsview Dr, Ann Arbor, MI 48108, USA","us_arb_sch_a_4","90","us_arb_sch_a_4_90"
"trial","survey","68","943095","0.0-2.0-66.0","60d76140337e60ae26f7fce9","625e209c10a247530e1c6964","625ee95f7836a45e1809a811","9","7099","","{""P0_Q0"":null,""ambiguous"":4,""objects"":2,""invisible"":2,""chaos"":2}","","","","","","","","","","","","","","","","","[]","Nearby location of Adahi Sano Post Office (jp_hik_pos_a_3)","ChIJ687ZfeOPGGARr0sg29_jaNA","35.7854552","139.8422615","JP","HIK","HIK","POS","1-chōme-19-3 Sano, Adachi City, Tokyo 121-0053, Japan","jp_hik_pos_b_3","0","jp_hik_pos_b_3_0"
"trial","survey","69","949593","0.0-2.0-67.0","60d76140337e60ae26f7fce9","625e209c10a247530e1c6964","625ee95f7836a45e1809a811","9","6426","","{""P0_Q0"":null,""ambiguous"":3,""objects"":2,""invisible"":2,""chaos"":2}","","","","","","","","","","","","","","","","","[]","Nearby location of Wave Preparatory Elementary School (us_nyc-p_sch_a_4)","ChIJTRYCJ69owokRpkzkKnXhZN4","40.5983625","-73.7567706","US","NYC","PER","SCH","4-16 Beach 22nd St, Far Rockaway, NY 11691, USA","us_nyc-p_sch_b_4","90","us_nyc-p_sch_b_4_90"
"trial","survey","70","961880","0.0-2.0-68.0","60d76140337e60ae26f7fce9","625e209c10a247530e1c6964","625ee95f7836a45e1809a811","9","12202","","{""P0_Q0"":null,""ambiguous"":4,""objects"":2,""invisible"":2,""chaos"":2}","","","","","","","","","","","","","","","","","[]","Nearby location of Minami-Ikebukuro Post Office (jp_tok-c_pos_a_6)","ChIJYSTPzWmNGGARuevXlN7s3ko","35.7261522","139.7122633","JP","TOK","CTR","POS","3-chōme-13-20 Minamiikebukuro, Toshima City, Tokyo 171-0022, Japan","jp_tok-c_pos_b_6","180","jp_tok-c_pos_b_6_180"
"trial","survey","71","970363","0.0-2.0-69.0","60d76140337e60ae26f7fce9","625e209c10a247530e1c6964","625ee95f7836a45e1809a811","9","8401","","{""P0_Q0"":null,""ambiguous"":1,""objects"":1,""invisible"":1,""chaos"":1}","","","","","","","","","","","","","","","","","[]","Nearby location of Graduate Ann Arbor (us_arb_htl_a_high1)","ChIJYetfYhWuPIgRy9Fx8ebdnWE","42.2824654","-83.7429681","US","ARB","ARB","HTL","501 E Ann St, Ann Arbor, MI 48104, USA","us_arb_htl_b_high1","270","us_arb_htl_b_high1_270"
"trial","survey","72","975667","0.0-2.0-70.0","60d76140337e60ae26f7fce9","625e209c10a247530e1c6964","625ee95f7836a45e1809a811","9","5242","","{""P0_Q0"":null,""ambiguous"":2,""objects"":2,""invisible"":2,""chaos"":2}","","","","","","","","","","","","","","","","","[]","HOTEL ALLAMANDA AOYAMA","FGTYOHAA","35.67122","139.71765","JP","TOK","CTR","HTL","2-7-13 KITA AOYAMA MINATO-KU, TOKYO 107 0061","jp_tok-c_htl_a_high1","270","jp_tok-c_htl_a_high1_270"
"trial","survey","73","989140","0.0-2.0-71.0","60d76140337e60ae26f7fce9","625e209c10a247530e1c6964","625ee95f7836a45e1809a811","9","13413","","{""P0_Q0"":null,""ambiguous"":1,""objects"":3,""invisible"":2,""chaos"":2}","","","","","","","","","","","","","","","","","[]","The Pearl NYC","XTLGATPH","40.76144","-73.98553","US","NYC","CTR","HTL","233 W 49TH ST, NEW YORK, NY 10019","us_nyc-c_htl_a_high1","0","us_nyc-c_htl_a_high1_0"
"trial","survey","74","994269","0.0-2.0-72.0","60d76140337e60ae26f7fce9","625e209c10a247530e1c6964","625ee95f7836a45e1809a811","9","5060","","{""P0_Q0"":null,""ambiguous"":1,""objects"":1,""invisible"":1,""chaos"":1}","","","","","","","","","","","","","","","","","[]","Days Inn by Wyndham Ann Arbor","DIARB238","42.25268","-83.68165","US","ARB","ARB","HTL","2380 CARPENTER ROAD, ANN ARBOR, MI 48108","us_arb_htl_a_low2","90","us_arb_htl_a_low2_90"
"trial","survey","75","1001331","0.0-2.0-73.0","60d76140337e60ae26f7fce9","625e209c10a247530e1c6964","625ee95f7836a45e1809a811","9","6987","","{""P0_Q0"":null,""ambiguous"":3,""objects"":2,""invisible"":2,""chaos"":2}","","","","","","","","","","","","","","","","","[]","Nearby location of Tyler school (us_nyc-p_sch_a_3)","ChIJ_YUu76b0wokR2szNWwZJrq8","40.85244","-73.8576424","US","NYC","PER","SCH","1038 Neill Ave, Bronx, NY 10461, USA","us_nyc-p_sch_b_3","0","us_nyc-p_sch_b_3_0"
"trial","survey","76","1006570","0.0-2.0-74.0","60d76140337e60ae26f7fce9","625e209c10a247530e1c6964","625ee95f7836a45e1809a811","9","5168","","{""P0_Q0"":null,""ambiguous"":1,""objects"":1,""invisible"":1,""chaos"":1}","","","","","","","","","","","","","","","","","[]","South Meadows Elementary School","ChIJQaIiMqnOPIgRKzWLjS6IoXg","42.3121005","-84.0238583","US","CHL","CHL","SCH","335 Pierce St, Chelsea, MI 48118, USA","us_chl_sch_a_1","90","us_chl_sch_a_1_90"
"trial","survey","77","1011703","0.0-2.0-75.0","60d76140337e60ae26f7fce9","625e209c10a247530e1c6964","625ee95f7836a45e1809a811","9","5078","","{""P0_Q0"":null,""ambiguous"":2,""objects"":2,""invisible"":2,""chaos"":2}","","","","","","","","","","","","","","","","","[]","Nearby location of Fairfield Inn and Suites by Marriott New York Manhattan Times Square (us_nyc-c_htl_a_mid1)","ChIJt_ncpFJYwokRykJpalw_bYU","40.7575246","-73.994055","US","NYC","CTR","HTL","405 W 40th St, New York, NY 10018, USA","us_nyc-c_htl_b_mid1","0","us_nyc-c_htl_b_mid1_0"
"trial","survey","78","1018397","0.0-2.0-76.0","60d76140337e60ae26f7fce9","625e209c10a247530e1c6964","625ee95f7836a45e1809a811","9","6527","","{""P0_Q0"":null,""ambiguous"":2,""objects"":2,""invisible"":2,""chaos"":2}","","","","","","","","","","","","","","","","","[]","Wave Preparatory Elementary School","ChIJRdKuS69owokRVVzQsuzg6go","40.5995661","-73.7582473","US","NYC","PER","SCH","535 Briar Pl, Queens, NY 11691, USA","us_nyc-p_sch_a_4","270","us_nyc-p_sch_a_4_270"
"demographics","survey-html-form","79","1032222","0.0-2.0-77.0","60d76140337e60ae26f7fce9","625e209c10a247530e1c6964","625ee95f7836a45e1809a811","9","13808","","{""age"":""42"",""gender"":""male"",""gender-self-describe"":"""",""zipcode"":""08701""}","","","","","","","","","","","","","","","","","","","","","","","","","","","","",""
"demographics","survey","80","1040821","0.0-2.0-78.0","60d76140337e60ae26f7fce9","625e209c10a247530e1c6964","625ee95f7836a45e1809a811","9","8490","","{""P0_Q0"":null,""outsideUS"":""No"",""outsideUS_years"":""""}","","","","","","","","","","","","","","","","","[]","","","","","","","","","","","",""
"end-survey","survey-text","81","1042687","0.0-2.0-79.0","60d76140337e60ae26f7fce9","625e209c10a247530e1c6964","625ee95f7836a45e1809a811","9","1845","","{""Q0"":""""}","","","","","","","","","","","","","","","","","","","","","","","","","","","","",""
