"task","trial_type","trial_index","time_elapsed","internal_node_id","subject_id","study_id","session_id","group","rt","stimulus","response","width","height","webaudio","browser","browser_version","mobile","os","fullscreen","vsync_rate","webcam","microphone","success","timeout","failed_images","failed_audio","failed_video","accuracy","name","place_id","lat","lng","culture","loc1","loc2","loct","address","loc_id_prev","angle","loc_id"
"pavlovia-init","pavlovia","0","1430","0.0-0.0","6101f6f45269e30a22fc4526","626166b218b78fee4e9d8d4d","62617c2250c473cb53992b94","3","","","","","","","","","","","","","","","","","","","","","","","","","","","","","","","",""
"consent","html-button-response","1","9098","0.0-1.0","6101f6f45269e30a22fc4526","626166b218b78fee4e9d8d4d","62617c2250c473cb53992b94","3","7651","
        <div style=""font-size: 80%; max-width:700px"">
            <h2>Informed Consent</h2><br>
        
            <div style=""text-align: left"">
            <h3>Streetscape Perceptions</h3>
            <b>HUM00189138</b>
            <br><hr>
        
            <h4>DESCRIPTION</h4>
            <p>
                In this study, you will view Google Street View images. You will then answer questions about your impressions of the streetscapes presented in those images.
            </p><br>
        
            <h4>TIME INVOLVEMENT</h4>
            <p>Your participation will take approximately 30 minutes.</p><br>
        
            <h4>RISKS AND BENEFITS</h4>
            <p>
                The risks associated with this study are minimal. The benefits which may reasonably be expected to result from this study are none.  We cannot and do not guarantee or promise that you will receive any benefits from this study. 
            </p><br>
        
            <h4>PAYMENTS</h4>
            <p>You will be paid <b>$5.00</b> for your participation.</p><br>
        
            <h4>SUBJECT'S RIGHTS</h4>
            <p>
                If you have read this form and have decided to participate in this project, please understand your participation is voluntary and you have the right to withdraw your consent or discontinue participation at any time without penalty or loss of benefits to which you are otherwise entitled.  The alternative is not to participate.  You have the right to refuse to answer particular questions.  
            </p>
        
            <p>
                Your individual privacy will be maintained in all published and written data resulting from the study. Your responses will be kept confidential: you are given a participant code, and no one, not even the research team, can match that code with your identity. Your collected information may also be shared with other researchers as part of our dataset.
            </p><br>
        
            <h4>CONTACT INFORMATION</h4>
            <p>
                Questions: If you have any questions, concerns or complaints about this research, its procedures, risks and benefits, contact the Protocol Director, Nicholas Camp, npcamp@umich.edu, (443) 851-6783.
            </p>
        
            <p>
                If you have questions about your rights as a research participant, or wish to obtain information, ask questions or discuss any concerns about this study with someone other than the researcher(s), please contact the following:
                <br><br>
        
                University of Michigan<br>
                Health Sciences and Behavioral Sciences Institutional Review Board
                (IRB-HSBS)<br>
                2800 Plymouth Road <br>
                Building 520, Room 1169 <br>
                Ann Arbor, MI 48109-2800 <br>
                Telephone: 734-936-0933 or toll free (866) 936-0933 <br>
                Fax: 734-936-1852 <br />
                E-mail: irbhsbs@umich.edu <br>
            </p>
        
            <p>
                You can also contact the University of Michigan Compliance Hotline at 1-866-990-0111. You may also print this consent form to keep.
            </p>
            <br>
        
            <div class=""alert alert-warning""><b>
                Do you consent to participate in this study? If you consent to participate in this study, please click “Accept and continue.”
            </b></div>
            </div>
        </div>
    ","1","","","","","","","","","","","","","","","","","","","","","","","","","","","","",""
"browser-check","browser-check","2","10233","0.0-2.0-0.0","6101f6f45269e30a22fc4526","626166b218b78fee4e9d8d4d","62617c2250c473cb53992b94","3","","","","1366","625","true","chrome","100.0.4896","false","Windows 10","true","60.24","true","true","","","","","","","","","","","","","","","","","",""
"","preload","3","11691","0.0-2.0-1.0","6101f6f45269e30a22fc4526","626166b218b78fee4e9d8d4d","62617c2250c473cb53992b94","3","","","","","","","","","","","","","","","true","false","[]","[]","[]","","","","","","","","","","","","",""
"instructions","html-button-response","4","18927","0.0-2.0-2.0","6101f6f45269e30a22fc4526","626166b218b78fee4e9d8d4d","62617c2250c473cb53992b94","3","7231","
        <div class=""text-container"">
            <h1>Welcome to the study!</h1>
            
            <div class=""text-left"">
                <p>
                    In this study, we are interested in how people think about different Google Street View images. Google Street View takes pictures of streets used for Google Earth and Google Maps. You’ll see Google Street View images of different places and answer some questions about each one.
                </p>
            </div>
            
            <img src='
            https://maps.googleapis.com/maps/api/streetview?size=640x320
            &location=37.783631,-122.432766
            &heading=80
            &pitch=2
            &fov=100
            &radius=150
            &key=AIzaSyC2OxRDg6qlzZDj7j0UAD2XyE0qWokLvvs
            &source=outdoor'>
        
            <br>
        <br>
    ","0","","","","","","","","","","","","","","","","","","","","","","","","","","","","",""
"instructions","html-button-response","5","42758","0.0-2.0-3.0","6101f6f45269e30a22fc4526","626166b218b78fee4e9d8d4d","62617c2250c473cb53992b94","3","23528","
        <style>
            img.small {
            max-width: 100px;
            }
            li {
            text-indent: 40px;
            }
        </style>

        <div class=""text-container text-left"">
            <p>For each picture, we’d like your impressions of the scene:</p>
            
            <hr>
                Are there <b>clear, distinct boundaries</b> between objects in the scene, or are the <b>boundaries ambiguous or unclear</b>?
                
                <li>clear, distinct boundaries: <img class=""small"" src=""assets/img/ambiguous-low.png""></li>
                <li>ambiguous or unclear boundaries: <img class=""small"" src=""assets/img/ambiguous-high.png""></li>
            <hr>
            <br>
                Are there <b>only a few different objects</b> in the scene, or is there <b>a large number</b>?
            <br><br>
            <hr>
                Are only <b>a few parts</b> of the scene <b>invisible or obscured</b>, or are <b>many parts invisible or obscured</b>?
                
                <li>a few parts invisible or obscured: <img class=""small"" src=""assets/img/invisible-low.png""></li>
                <li>many parts invisible or obscured: <img class=""small"" src=""assets/img/invisible-high.png""></li>
            <hr>
            <br>
                Does the scene look <b>organized</b> or <b>chaotic</b> to you?
            <br><br>
            <hr>
            
            <p>
                There are no right or wrong answers: we are interested in <b>your</b> impression. Note that some images might have individual buildings or faces blurred for privacy. Please ignore these when making your judgments.
            </p>
        </div>
        <br>
    ","0","","","","","","","","","","","","","","","","","","","","","","","","","","","","",""
"instructions","html-button-response","6","47908","0.0-2.0-4.0","6101f6f45269e30a22fc4526","626166b218b78fee4e9d8d4d","62617c2250c473cb53992b94","3","5147","
        <div class=""text-container text-left"">
            <p>Please make sure you are doing this study in an area where you can focus and complete the survey in one sitting.</p>

            <p>Don’t spend too much time on any one picture, and, again go with your gut impression!</p>
            
            <p>The study should take about 30 minutes. We’ll let you know when you’re halfway through.</p>
        </div>
            
        <h3>Ready? Click next to get started!</h3>
        <br>
    ","0","","","","","","","","","","","","","","","","","","","","","","","","","","","","",""
"trial","survey","7","73740","0.0-2.0-5.0","6101f6f45269e30a22fc4526","626166b218b78fee4e9d8d4d","62617c2250c473cb53992b94","3","25726","","{""P0_Q0"":null,""ambiguous"":2,""objects"":1,""invisible"":1,""chaos"":1}","","","","","","","","","","","","","","","","","[]","Nearby location of Kirihara Higashi Elementary School (jp_hik_sch_a_2)","ChIJ44W9Gy96AWARDa0LDoFiGi8","35.1236331","136.0869352","JP","HIK","HIK","SCH","1379 Tsuchidachō, Omihachiman, Shiga 523-0082, Japan","jp_hik_sch_b_2","180","jp_hik_sch_b_2_180"
"trial","survey","8","88003","0.0-2.0-6.0","6101f6f45269e30a22fc4526","626166b218b78fee4e9d8d4d","62617c2250c473cb53992b94","3","14220","","{""P0_Q0"":null,""ambiguous"":4,""objects"":3,""invisible"":4,""chaos"":5}","","","","","","","","","","","","","","","","","[]","Nearby location of United States Postal Service (us_nyc-c_pos_a_1)","ChIJb5p6MRP2wokR4nQvWgRky_4","40.8100051","-73.9519042","US","NYC","CTR","POS","2311 Frederick Douglass Blvd, New York, NY 10027, USA","us_nyc-c_pos_b_1","90","us_nyc-c_pos_b_1_90"
"trial","survey","9","101537","0.0-2.0-7.0","6101f6f45269e30a22fc4526","626166b218b78fee4e9d8d4d","62617c2250c473cb53992b94","3","13504","","{""P0_Q0"":null,""ambiguous"":4,""objects"":4,""invisible"":4,""chaos"":4}","","","","","","","","","","","","","","","","","[]","Kakezuka Elementary School","ChIJLYvCVhSLGGARQZ0PUiBKWkg","35.6443992","139.714528","JP","TOK","CTR","SCH","4-chōme-21-10 Ebisu, Shibuya City, Tokyo 150-0013, Japan","jp_tok-c_sch_a_4","270","jp_tok-c_sch_a_4_270"
"trial","survey","10","113783","0.0-2.0-8.0","6101f6f45269e30a22fc4526","626166b218b78fee4e9d8d4d","62617c2250c473cb53992b94","3","12217","","{""P0_Q0"":null,""ambiguous"":1,""objects"":1,""invisible"":2,""chaos"":2}","","","","","","","","","","","","","","","","","[]","Kanponoyado Hikone","ChIJlbdbLicrAmARI9pD-bcXKlg","35.2872369","136.2493256","JP","HIK","HIK","HTL","3759 Matsubarachō, Hikone, Shiga 522-0002, Japan","jp_hik_htl_a_mid1","180","jp_hik_htl_a_mid1_180"
"trial","survey","11","132495","0.0-2.0-9.0","6101f6f45269e30a22fc4526","626166b218b78fee4e9d8d4d","62617c2250c473cb53992b94","3","18686","","{""P0_Q0"":null,""ambiguous"":2,""objects"":4,""invisible"":2,""chaos"":3}","","","","","","","","","","","","","","","","","[]","Nearby location of Guidepost Montessori at Museum Mile (us_nyc-c_sch_a_7)","ChIJMU401IBZwokRBiUiZCbwkh0","40.7774782","-73.9615352","US","NYC","CTR","SCH","1070 Madison Ave, New York, NY 10028, USA","us_nyc-c_sch_b_7","0","us_nyc-c_sch_b_7_0"
"trial","survey","12","145248","0.0-2.0-10.0","6101f6f45269e30a22fc4526","626166b218b78fee4e9d8d4d","62617c2250c473cb53992b94","3","12722","","{""P0_Q0"":null,""ambiguous"":2,""objects"":5,""invisible"":2,""chaos"":3}","","","","","","","","","","","","","","","","","[]","Nearby location of Wave Preparatory Elementary School (us_nyc-p_sch_a_4)","ChIJTRYCJ69owokRpkzkKnXhZN4","40.5983625","-73.7567706","US","NYC","PER","SCH","4-16 Beach 22nd St, Far Rockaway, NY 11691, USA","us_nyc-p_sch_b_4","0","us_nyc-p_sch_b_4_0"
"trial","survey","13","157380","0.0-2.0-11.0","6101f6f45269e30a22fc4526","626166b218b78fee4e9d8d4d","62617c2250c473cb53992b94","3","12106","","{""P0_Q0"":null,""ambiguous"":1,""objects"":2,""invisible"":1,""chaos"":1}","","","","","","","","","","","","","","","","","[]","Math, Language and Art Elementary Math Algebra I & II Geometry PreCalculus Calculus College Math Data Analysis","ChIJt2b18g9gwokRk8pPfW8GOkc","40.762569","-73.8314318","US","NYC","PER","SCH","123 Main St, Flushing, NY 11354, USA","us_nyc-p_sch_a_2","270","us_nyc-p_sch_a_2_270"
"trial","survey","14","171710","0.0-2.0-12.0","6101f6f45269e30a22fc4526","626166b218b78fee4e9d8d4d","62617c2250c473cb53992b94","3","14303","","{""P0_Q0"":null,""ambiguous"":2,""objects"":3,""invisible"":2,""chaos"":2}","","","","","","","","","","","","","","","","","[]","3rd Haketa Elementary School","ChIJ-R1gr2OOGGARBama0y6Aw5k","35.733569","139.78608","JP","TOK","PER","SCH","1-chōme-43-1 Arakawa, Arakawa City, Tokyo 116-0002, Japan","jp_tok-p_sch_a_1","0","jp_tok-p_sch_a_1_0"
"trial","survey","15","182606","0.0-2.0-13.0","6101f6f45269e30a22fc4526","626166b218b78fee4e9d8d4d","62617c2250c473cb53992b94","3","10867","","{""P0_Q0"":null,""ambiguous"":1,""objects"":1,""invisible"":1,""chaos"":1}","","","","","","","","","","","","","","","","","[]","3rd Haketa Elementary School","ChIJ-R1gr2OOGGARBama0y6Aw5k","35.733569","139.78608","JP","TOK","PER","SCH","1-chōme-43-1 Arakawa, Arakawa City, Tokyo 116-0002, Japan","jp_tok-p_sch_a_1","90","jp_tok-p_sch_a_1_90"
"trial","survey","16","197165","0.0-2.0-14.0","6101f6f45269e30a22fc4526","626166b218b78fee4e9d8d4d","62617c2250c473cb53992b94","3","14530","","{""P0_Q0"":null,""ambiguous"":4,""objects"":3,""invisible"":3,""chaos"":3}","","","","","","","","","","","","","","","","","[]","TownePlace Suites by Marriott Ann Arbor","TOARBTPT","42.23796","-83.74932","US","ARB","ARB","HTL","1301 BRIARWOOD CIRCLE DR, ANN ARBOR, MI 48108","us_arb_htl_a_mid1","270","us_arb_htl_a_mid1_270"
"trial","survey","17","208625","0.0-2.0-15.0","6101f6f45269e30a22fc4526","626166b218b78fee4e9d8d4d","62617c2250c473cb53992b94","3","11435","","{""P0_Q0"":null,""ambiguous"":2,""objects"":3,""invisible"":4,""chaos"":2}","","","","","","","","","","","","","","","","","[]","Nearby location of Oizumi Daini Elementary School (jp_tok-p_sch_a_6)","ChIJMaeqHtruGGARm4LZU_WxHzQ","35.7454686","139.5741349","JP","TOK","PER","SCH","4-chōme-32-2 Minamiōizumi, Nerima City, Tokyo 178-0064, Japan","jp_tok-p_sch_b_6","270","jp_tok-p_sch_b_6_270"
"trial","survey","18","218906","0.0-2.0-16.0","6101f6f45269e30a22fc4526","626166b218b78fee4e9d8d4d","62617c2250c473cb53992b94","3","10254","","{""P0_Q0"":null,""ambiguous"":1,""objects"":2,""invisible"":1,""chaos"":1}","","","","","","","","","","","","","","","","","[]","United States Postal Service","ChIJESBBoWz2wokRc5NBjEpQTow","40.8112416","-73.9532884","US","NYC","CTR","POS","365 W 125th St Ste 2A, New York, NY 10027, USA","us_nyc-c_pos_a_1","180","us_nyc-c_pos_a_1_180"
"trial","survey","19","228114","0.0-2.0-17.0","6101f6f45269e30a22fc4526","626166b218b78fee4e9d8d4d","62617c2250c473cb53992b94","3","9185","","{""P0_Q0"":null,""ambiguous"":1,""objects"":2,""invisible"":1,""chaos"":1}","","","","","","","","","","","","","","","","","[]","Nearby location of United States Postal Service (us_nyc-c_pos_a_2)","ChIJtTVWPTz2wokR67Bcx4reZLs","40.8061808","-73.963843","US","NYC","CTR","POS","540 W 114th St, New York, NY 10025, USA","us_nyc-c_pos_b_2","0","us_nyc-c_pos_b_2_0"
"trial","survey","20","239216","0.0-2.0-18.0","6101f6f45269e30a22fc4526","626166b218b78fee4e9d8d4d","62617c2250c473cb53992b94","3","11076","","{""P0_Q0"":null,""ambiguous"":2,""objects"":3,""invisible"":2,""chaos"":2}","","","","","","","","","","","","","","","","","[]","Flexstay Inn Shinagawa","HSTYOAIW","35.62213","139.7401","JP","TOK","PER","HTL","1-22-19, KITASHINAGAWA, TOKYO 140-0001","jp_tok-p_htl_a_mid2","180","jp_tok-p_htl_a_mid2_180"
"trial","survey","21","245670","0.0-2.0-19.0","6101f6f45269e30a22fc4526","626166b218b78fee4e9d8d4d","62617c2250c473cb53992b94","3","6429","","{""P0_Q0"":null,""ambiguous"":1,""objects"":1,""invisible"":1,""chaos"":1}","","","","","","","","","","","","","","","","","[]","Toshima Minami-Nagasaki Post Office","ChIJjbRx2KnyGGARYqMHBr_HSX0","35.7264975","139.6842311","JP","TOK","CTR","POS","4-chōme-27-5 Minaminagasaki, Toshima City, Tokyo 171-0052, Japan","jp_tok-c_pos_a_4","90","jp_tok-c_pos_a_4_90"
"trial","survey","22","255047","0.0-2.0-20.0","6101f6f45269e30a22fc4526","626166b218b78fee4e9d8d4d","62617c2250c473cb53992b94","3","9353","","{""P0_Q0"":null,""ambiguous"":1,""objects"":1,""invisible"":1,""chaos"":1}","","","","","","","","","","","","","","","","","[]","Nearby location of Nakano Sun Cuore Post Office (jp_tok-p_pos_a_2)","ChIJ_6f_XpryGGARylU0pXEPcbM","35.7102066","139.6632353","JP","TOK","PER","POS","2-chōme-30-7 Arai, Nakano City, Tokyo 165-0026, Japan","jp_tok-p_pos_b_2","270","jp_tok-p_pos_b_2_270"
"trial","survey","23","266935","0.0-2.0-21.0","6101f6f45269e30a22fc4526","626166b218b78fee4e9d8d4d","62617c2250c473cb53992b94","3","11862","","{""P0_Q0"":null,""ambiguous"":2,""objects"":2,""invisible"":3,""chaos"":3}","","","","","","","","","","","","","","","","","[]","Nearby location of Kirihara Higashi Elementary School (jp_hik_sch_a_2)","ChIJ44W9Gy96AWARDa0LDoFiGi8","35.1236331","136.0869352","JP","HIK","HIK","SCH","1379 Tsuchidachō, Omihachiman, Shiga 523-0082, Japan","jp_hik_sch_b_2","90","jp_hik_sch_b_2_90"
"trial","survey","24","277614","0.0-2.0-22.0","6101f6f45269e30a22fc4526","626166b218b78fee4e9d8d4d","62617c2250c473cb53992b94","3","10647","","{""P0_Q0"":null,""ambiguous"":4,""objects"":3,""invisible"":3,""chaos"":4}","","","","","","","","","","","","","","","","","[]","Nakano Shirasagi Post Office","ChIJxY70cpHtGGARm_OCTi5pxck","35.719125","139.6361439","JP","TOK","PER","POS","2-chōme-35-12 Shirasagi, Nakano City, Tokyo 165-0035, Japan","jp_tok-p_pos_a_3","90","jp_tok-p_pos_a_3_90"
"trial","survey","25","288153","0.0-2.0-23.0","6101f6f45269e30a22fc4526","626166b218b78fee4e9d8d4d","62617c2250c473cb53992b94","3","10512","","{""P0_Q0"":null,""ambiguous"":2,""objects"":2,""invisible"":2,""chaos"":2}","","","","","","","","","","","","","","","","","[]","Nearby location of United States Postal Service (us_nyc-c_pos_a_8)","ChIJEcOl7cBZwokREHeZNl9a5Q0","40.7424383","-74.007802","US","NYC","CTR","POS","60 10th Ave, New York, NY 10014, USA","us_nyc-c_pos_b_8","90","us_nyc-c_pos_b_8_90"
"trial","survey","26","297846","0.0-2.0-24.0","6101f6f45269e30a22fc4526","626166b218b78fee4e9d8d4d","62617c2250c473cb53992b94","3","9670","","{""P0_Q0"":null,""ambiguous"":1,""objects"":1,""invisible"":1,""chaos"":2}","","","","","","","","","","","","","","","","","[]","須賀谷温泉","ChIJ_4AJx3YmAmARdbO9N7D3Ofo","35.454895","136.281751","JP","TOR","TOR","HTL","36 Sugatanichō, Nagahama, Shiga 526-0277, Japan","jp_tor_htl_a_high1","180","jp_tor_htl_a_high1_180"
"trial","survey","27","309767","0.0-2.0-25.0","6101f6f45269e30a22fc4526","626166b218b78fee4e9d8d4d","62617c2250c473cb53992b94","3","11887","","{""P0_Q0"":null,""ambiguous"":3,""objects"":4,""invisible"":4,""chaos"":2}","","","","","","","","","","","","","","","","","[]","Nearby location of Hilton Garden Inn New York/Manhattan-Midtown East (us_nyc-c_htl_a_low2)","ChIJp7rOeORYwokR0fuDKJJiHkw","40.7579935","-73.9679168","US","NYC","CTR","HTL","223 E 54th St, New York, NY 10022, USA","us_nyc-c_htl_b_low2","270","us_nyc-c_htl_b_low2_270"
"trial","survey","28","320266","0.0-2.0-26.0","6101f6f45269e30a22fc4526","626166b218b78fee4e9d8d4d","62617c2250c473cb53992b94","3","10473","","{""P0_Q0"":null,""ambiguous"":1,""objects"":3,""invisible"":1,""chaos"":1}","","","","","","","","","","","","","","","","","[]","Nearby location of P.S. 153 Adam Clayton Powell (us_nyc-c_sch_a_3)","ChIJ37jL5mL2wokRoeoE0seWQ44","40.8276038","-73.9486798","US","NYC","CTR","SCH","547 W 147th St, New York, NY 10031, USA","us_nyc-c_sch_b_3","90","us_nyc-c_sch_b_3_90"
"trial","survey","29","332407","0.0-2.0-27.0","6101f6f45269e30a22fc4526","626166b218b78fee4e9d8d4d","62617c2250c473cb53992b94","3","12114","","{""P0_Q0"":null,""ambiguous"":3,""objects"":3,""invisible"":2,""chaos"":3}","","","","","","","","","","","","","","","","","[]","Jingūmae 6 Post Office","ChIJO43ODKSMGGAR5KiNqtge1mc","35.6666411","139.7050847","JP","TOK","CTR","POS","6-chōme-12-28 Jingūmae, Shibuya City, Tokyo 150-0001, Japan","jp_tok-c_pos_a_2","0","jp_tok-c_pos_a_2_0"
"trial","survey","30","344265","0.0-2.0-28.0","6101f6f45269e30a22fc4526","626166b218b78fee4e9d8d4d","62617c2250c473cb53992b94","3","11830","","{""P0_Q0"":null,""ambiguous"":2,""objects"":1,""invisible"":1,""chaos"":3}","","","","","","","","","","","","","","","","","[]","Nearby location of Hotel JAL City Tokyo Toyosu (jp_tok-p_htl_a_mid1)","ChIJhxfMYB-JGGARzU1jFMgKRZ8","35.684968","139.8100484","JP","TOK","PER","HTL","1-chōme-1-7 Sarue, Koto City, Tokyo 135-0003, Japan","jp_tok-p_htl_b_mid1","270","jp_tok-p_htl_b_mid1_270"
"trial","survey","31","355689","0.0-2.0-29.0","6101f6f45269e30a22fc4526","626166b218b78fee4e9d8d4d","62617c2250c473cb53992b94","3","11396","","{""P0_Q0"":null,""ambiguous"":2,""objects"":4,""invisible"":2,""chaos"":2}","","","","","","","","","","","","","","","","","[]","Nearby location of United States Postal Service (us_nyc-c_pos_a_7)","ChIJjVTn2xD2wokRxjWBnF0UGVg","40.8023565","-73.9528115","US","NYC","CTR","POS","113 St Nicholas Ave, New York, NY 10026, USA","us_nyc-c_pos_b_7","270","us_nyc-c_pos_b_7_270"
"trial","survey","32","367271","0.0-2.0-30.0","6101f6f45269e30a22fc4526","626166b218b78fee4e9d8d4d","62617c2250c473cb53992b94","3","11556","","{""P0_Q0"":null,""ambiguous"":1,""objects"":2,""invisible"":1,""chaos"":1}","","","","","","","","","","","","","","","","","[]","Nearby location of Rakuten STAY HOUSE×WILLSTYLE 八幡堀 (jp_hik_htl_a_high1)","ChIJ-fEvCXl5AWAR8xruOW8CYd0","35.1408592","136.0976484","JP","HIK","HIK","HTL","485-9 Tagachō, Omihachiman, Shiga 523-0821, Japan","jp_hik_htl_b_high1","90","jp_hik_htl_b_high1_90"
"trial","survey","33","377938","0.0-2.0-31.0","6101f6f45269e30a22fc4526","626166b218b78fee4e9d8d4d","62617c2250c473cb53992b94","3","10633","","{""P0_Q0"":null,""ambiguous"":5,""objects"":3,""invisible"":4,""chaos"":5}","","","","","","","","","","","","","","","","","[]","Nearby location of Mukaihara Elementary School (jp_tok-p_sch_a_4)","ChIJVRTxz0jtGGAR3d5pAzj-FQQ","35.7402285","139.6828032","JP","TOK","PER","SCH","2-chōme-7-6 Mukaihara, Itabashi City, Tokyo 173-0036, Japan","jp_tok-p_sch_b_4","0","jp_tok-p_sch_b_4_0"
"trial","survey","34","389000","0.0-2.0-32.0","6101f6f45269e30a22fc4526","626166b218b78fee4e9d8d4d","62617c2250c473cb53992b94","3","11035","","{""P0_Q0"":null,""ambiguous"":1,""objects"":1,""invisible"":1,""chaos"":1}","","","","","","","","","","","","","","","","","[]","Nearby location of Graduate Ann Arbor (us_arb_htl_a_high1)","ChIJYetfYhWuPIgRy9Fx8ebdnWE","42.2824654","-83.7429681","US","ARB","ARB","HTL","501 E Ann St, Ann Arbor, MI 48104, USA","us_arb_htl_b_high1","0","us_arb_htl_b_high1_0"
"trial","survey","35","400315","0.0-2.0-33.0","6101f6f45269e30a22fc4526","626166b218b78fee4e9d8d4d","62617c2250c473cb53992b94","3","11292","","{""P0_Q0"":null,""ambiguous"":2,""objects"":3,""invisible"":1,""chaos"":1}","","","","","","","","","","","","","","","","","[]","P.S. 153 Adam Clayton Powell","ChIJzzGA13z2wokRATSY11DeEH8","40.826491","-73.9475211","US","NYC","CTR","SCH","1750 Amsterdam Ave, New York, NY 10031, USA","us_nyc-c_sch_a_3","270","us_nyc-c_sch_a_3_270"
"trial","survey","36","413411","0.0-2.0-34.0","6101f6f45269e30a22fc4526","626166b218b78fee4e9d8d4d","62617c2250c473cb53992b94","3","13071","","{""P0_Q0"":null,""ambiguous"":2,""objects"":2,""invisible"":3,""chaos"":1}","","","","","","","","","","","","","","","","","[]","United States Postal Service","ChIJbSwe0opYwokRPnmsjLkkilA","40.8276833","-73.9365073","US","NYC","CTR","POS","99 Macombs Pl, New York, NY 10039, USA","us_nyc-c_pos_a_3","90","us_nyc-c_pos_a_3_90"
"half-way","html-button-response","37","420211","0.0-2.0-35.0","6101f6f45269e30a22fc4526","626166b218b78fee4e9d8d4d","62617c2250c473cb53992b94","3","6794","
            <h3>You are now half way through the study.</h3>
            <p>Please take a quick, 15-second break before you continue.</p>
            <img src='assets/img/countdown-15.gif'>
            <p>The study will automatically advance forward after the countdown is complete. However, you may click ""Next"" to advance forward now if you wish.</p>
        ","0","","","","","","","","","","","","","","","","","","","","","","","","","","","","",""
"attention-check","survey","38","431532","0.0-2.0-36.0","6101f6f45269e30a22fc4526","626166b218b78fee4e9d8d4d","62617c2250c473cb53992b94","3","11294","","{""P0_Q0"":null,""ambiguous"":null,""objects"":null,""invisible"":null,""chaos"":null}","","","","","","","","","","","","","","","","","[]","","","","","","","","","","","",""
"trial","survey","39","444423","0.0-2.0-37.0","6101f6f45269e30a22fc4526","626166b218b78fee4e9d8d4d","62617c2250c473cb53992b94","3","12862","","{""P0_Q0"":null,""ambiguous"":3,""objects"":4,""invisible"":3,""chaos"":4}","","","","","","","","","","","","","","","","","[]","Nearby location of United States Postal Service (us_nyc-c_pos_a_4)","ChIJcyZXC532wokRElZ4iPS6aWo","40.8396207","-73.9374588","US","NYC","CTR","POS","2170 Amsterdam Ave, New York, NY 10032, USA","us_nyc-c_pos_b_4","180","us_nyc-c_pos_b_4_180"
"trial","survey","40","453758","0.0-2.0-38.0","6101f6f45269e30a22fc4526","626166b218b78fee4e9d8d4d","62617c2250c473cb53992b94","3","9310","","{""P0_Q0"":null,""ambiguous"":1,""objects"":3,""invisible"":2,""chaos"":2}","","","","","","","","","","","","","","","","","[]","Manually Updated Jittered SV for Nearby location of The Tokyo Station Hotel (jp_tok-c_htl_a_high2) (jp_tok-c_htl_b_high2)","ChIJYczFnPyLGGARpA9nubZ6QGc","35.67883","139.768186","JP","TOK","CTR","HTL","Tokyo Sta. Yaesuguchi(Yaesu Exit), 2-chōme-3 Yaesu, Chuo City, Tokyo 104-0028, Japan","jp_tok-c_htl_b_high2","180","jp_tok-c_htl_b_high2_180"
"trial","survey","41","464635","0.0-2.0-39.0","6101f6f45269e30a22fc4526","626166b218b78fee4e9d8d4d","62617c2250c473cb53992b94","3","10850","","{""P0_Q0"":null,""ambiguous"":1,""objects"":2,""invisible"":2,""chaos"":1}","","","","","","","","","","","","","","","","","[]","Nearby location of Katsushika City Iizuka Elementary School (jp_tok-p_sch_a_3)","ChIJ1_4-r2CFGGARraiLOcCqmco","35.7780152","139.8593261","JP","TOK","PER","SCH","Japan, 〒125-0035 Tokyo, Katsushika City, Minamimizumoto, 2-chōme−28−１６ セブンツークラッシックマンション","jp_tok-p_sch_b_3","90","jp_tok-p_sch_b_3_90"
"trial","survey","42","482878","0.0-2.0-40.0","6101f6f45269e30a22fc4526","626166b218b78fee4e9d8d4d","62617c2250c473cb53992b94","3","18219","","{""P0_Q0"":null,""ambiguous"":2,""objects"":1,""invisible"":2,""chaos"":1}","","","","","","","","","","","","","","","","","[]","Nearby location of Nakano Shirasagi Post Office (jp_tok-p_pos_a_3)","ChIJAX-SVZHtGGARmipALMOfEzw","35.7202777","139.6350482","JP","TOK","PER","POS","T&Ns, 2-chōme-37-3 Shirasagi, Nakano City, Tokyo 165-0035, Japan","jp_tok-p_pos_b_3","180","jp_tok-p_pos_b_3_180"
"trial","survey","43","492402","0.0-2.0-41.0","6101f6f45269e30a22fc4526","626166b218b78fee4e9d8d4d","62617c2250c473cb53992b94","3","9499","","{""P0_Q0"":null,""ambiguous"":1,""objects"":1,""invisible"":1,""chaos"":1}","","","","","","","","","","","","","","","","","[]","Nearby location of United States Postal Service (us_nyc-c_pos_a_5)","ChIJTw7oFwP0wokR0VL0nLNaknc","40.857723","-73.93222","US","NYC","CTR","POS","Broadway/W 192 St, New York, NY 10040, USA","us_nyc-c_pos_b_5","270","us_nyc-c_pos_b_5_270"
"trial","survey","44","504821","0.0-2.0-42.0","6101f6f45269e30a22fc4526","626166b218b78fee4e9d8d4d","62617c2250c473cb53992b94","3","12395","","{""P0_Q0"":null,""ambiguous"":3,""objects"":3,""invisible"":3,""chaos"":3}","","","","","","","","","","","","","","","","","[]","Hilton Garden Inn New York/Manhattan-Midtown East","GILGA964","40.75658","-73.96944","US","NYC","CTR","HTL","206 EAST 52ND STREET, NEW YORK, NY 10022","us_nyc-c_htl_a_low2","270","us_nyc-c_htl_a_low2_270"
"trial","survey","45","514413","0.0-2.0-43.0","6101f6f45269e30a22fc4526","626166b218b78fee4e9d8d4d","62617c2250c473cb53992b94","3","9570","","{""P0_Q0"":null,""ambiguous"":2,""objects"":3,""invisible"":3,""chaos"":2}","","","","","","","","","","","","","","","","","[]","United States Postal Service","ChIJ2S39Rs6xPIgRFumqYMpJrTE","42.2709374","-83.7748696","US","ARB","ARB","POS","2075 W Stadium Blvd, Ann Arbor, MI 48103, USA","us_arb_pos_a_2","180","us_arb_pos_a_2_180"
"trial","survey","46","527450","0.0-2.0-44.0","6101f6f45269e30a22fc4526","626166b218b78fee4e9d8d4d","62617c2250c473cb53992b94","3","13012","","{""P0_Q0"":null,""ambiguous"":4,""objects"":3,""invisible"":4,""chaos"":4}","","","","","","","","","","","","","","","","","[]","Nearby location of Shinshuku Elementary School (jp_tok-p_sch_a_2)","ChIJQemZKVlgGGARmLFMYv3EENc","35.5584586","139.7170675","JP","TOK","PER","SCH","Japan, 〒144-0053 Tokyo, Ota City, Kamatahonchō, 1-chōme−2−５ ＮＴＴ蒲田ビル","jp_tok-p_sch_b_2","180","jp_tok-p_sch_b_2_180"
"trial","survey","47","542863","0.0-2.0-45.0","6101f6f45269e30a22fc4526","626166b218b78fee4e9d8d4d","62617c2250c473cb53992b94","3","15384","","{""P0_Q0"":null,""ambiguous"":5,""objects"":4,""invisible"":3,""chaos"":4}","","","","","","","","","","","","","","","","","[]","Nearby location of INTERCONTINENTAL THE STRINGS (jp_tok-c_htl_a_mid2)","ChIJAb1kM0WKGGARue_1-lZ6ilo","35.6290559","139.7422638","JP","TOK","CTR","HTL","2-chōme-2-2-14 Kōnan, Minato City, Tokyo 108-0075, Japan","jp_tok-c_htl_b_mid2","270","jp_tok-c_htl_b_mid2_270"
"trial","survey","48","552744","0.0-2.0-46.0","6101f6f45269e30a22fc4526","626166b218b78fee4e9d8d4d","62617c2250c473cb53992b94","3","9857","","{""P0_Q0"":null,""ambiguous"":1,""objects"":2,""invisible"":1,""chaos"":1}","","","","","","","","","","","","","","","","","[]","Nearby location of Ann Arbor Christian School (us_arb_sch_a_2)","ChIJx979uW-tPIgRK2esjhwtDDE","42.352939","-83.7497999","US","ARB","ARB","SCH","5460 Whitmore Lake Rd, Ann Arbor, MI 48105, USA","us_arb_sch_b_2","90","us_arb_sch_b_2_90"
"trial","survey","49","564248","0.0-2.0-47.0","6101f6f45269e30a22fc4526","626166b218b78fee4e9d8d4d","62617c2250c473cb53992b94","3","11480","","{""P0_Q0"":null,""ambiguous"":2,""objects"":1,""invisible"":1,""chaos"":2}","","","","","","","","","","","","","","","","","[]","Nearby location of United States Postal Service (us_nyc-c_pos_a_3)","ChIJpWHPQID2wokRneXgmeORzP4","40.8291253","-73.9375732","US","NYC","CTR","POS","2925 Frederick Douglass Blvd, New York, NY 10039, USA","us_nyc-c_pos_b_3","90","us_nyc-c_pos_b_3_90"
"trial","survey","50","575977","0.0-2.0-48.0","6101f6f45269e30a22fc4526","626166b218b78fee4e9d8d4d","62617c2250c473cb53992b94","3","11706","","{""P0_Q0"":null,""ambiguous"":5,""objects"":3,""invisible"":4,""chaos"":3}","","","","","","","","","","","","","","","","","[]","Nearby location of Horace Mann Barnard Elementary (us_nyc-p_sch_a_1)","ChIJ9ds6urrzwokRAWUJ8d6GdJk","40.8906469","-73.9015387","US","NYC","PER","SCH","Chrysostom Hall, 4513 Manhattan College Pkwy, Bronx, NY 10471, USA","us_nyc-p_sch_b_1","270","us_nyc-p_sch_b_1_270"
"trial","survey","51","591955","0.0-2.0-49.0","6101f6f45269e30a22fc4526","626166b218b78fee4e9d8d4d","62617c2250c473cb53992b94","3","15949","","{""P0_Q0"":null,""ambiguous"":4,""objects"":3,""invisible"":4,""chaos"":3}","","","","","","","","","","","","","","","","","[]","Hikoneatohoteru","ChIJcSdJDVfUA2ARZ1X1w0kURVw","35.2392938","136.255227","JP","HIK","HIK","HTL","1707-1 Takamiyachō, Hikone, Shiga 522-0201, Japan","jp_hik_htl_a_low1","270","jp_hik_htl_a_low1_270"
"trial","survey","52","604945","0.0-2.0-50.0","6101f6f45269e30a22fc4526","626166b218b78fee4e9d8d4d","62617c2250c473cb53992b94","3","12967","","{""P0_Q0"":null,""ambiguous"":4,""objects"":4,""invisible"":3,""chaos"":5}","","","","","","","","","","","","","","","","","[]","United States Postal Service","ChIJ7bddbC9ZwokRPh32cXCjIis","40.7414054","-74.0067214","US","NYC","CTR","POS","426A W 14th St, New York, NY 10014, USA","us_nyc-c_pos_a_8","270","us_nyc-c_pos_a_8_270"
"trial","survey","53","627617","0.0-2.0-51.0","6101f6f45269e30a22fc4526","626166b218b78fee4e9d8d4d","62617c2250c473cb53992b94","3","22642","","{""P0_Q0"":null,""ambiguous"":2,""objects"":2,""invisible"":3,""chaos"":2}","","","","","","","","","","","","","","","","","[]","Nearby location of William O'Shea Campus (us_nyc-c_sch_a_6)","ChIJpefuOY9YwokR-Pk3vGiQNI4","40.7819913","-73.9762638","US","NYC","CTR","SCH","118 W 79th St, New York, NY 10024, USA","us_nyc-c_sch_b_6","180","us_nyc-c_sch_b_6_180"
"trial","survey","54","649575","0.0-2.0-52.0","6101f6f45269e30a22fc4526","626166b218b78fee4e9d8d4d","62617c2250c473cb53992b94","3","21932","","{""P0_Q0"":null,""ambiguous"":5,""objects"":5,""invisible"":5,""chaos"":4}","","","","","","","","","","","","","","","","","[]","Nearby location of Shinshuku Elementary School (jp_tok-p_sch_a_2)","ChIJQemZKVlgGGARmLFMYv3EENc","35.5584586","139.7170675","JP","TOK","PER","SCH","Japan, 〒144-0053 Tokyo, Ota City, Kamatahonchō, 1-chōme−2−５ ＮＴＴ蒲田ビル","jp_tok-p_sch_b_2","0","jp_tok-p_sch_b_2_0"
"trial","survey","55","659983","0.0-2.0-53.0","6101f6f45269e30a22fc4526","626166b218b78fee4e9d8d4d","62617c2250c473cb53992b94","3","10376","","{""P0_Q0"":null,""ambiguous"":5,""objects"":5,""invisible"":4,""chaos"":4}","","","","","","","","","","","","","","","","","[]","Nearby location of Katsushika City Iizuka Elementary School (jp_tok-p_sch_a_3)","ChIJ1_4-r2CFGGARraiLOcCqmco","35.7780152","139.8593261","JP","TOK","PER","SCH","Japan, 〒125-0035 Tokyo, Katsushika City, Minamimizumoto, 2-chōme−28−１６ セブンツークラッシックマンション","jp_tok-p_sch_b_3","180","jp_tok-p_sch_b_3_180"
"trial","survey","56","666702","0.0-2.0-54.0","6101f6f45269e30a22fc4526","626166b218b78fee4e9d8d4d","62617c2250c473cb53992b94","3","6695","","{""P0_Q0"":null,""ambiguous"":1,""objects"":1,""invisible"":1,""chaos"":1}","","","","","","","","","","","","","","","","","[]","Hotel Kaito","ChIJSw_1QTuSAWARZz9bnjVtA6Q","35.3989028","136.0315856","JP","HIK","HIK","HTL","Japan, 〒520-1631 Shiga, Takashima, Imazuchō Nakoji, 1-chōme−６−１０","jp_hik_htl_a_low2","180","jp_hik_htl_a_low2_180"
"trial","survey","57","674578","0.0-2.0-55.0","6101f6f45269e30a22fc4526","626166b218b78fee4e9d8d4d","62617c2250c473cb53992b94","3","7832","","{""P0_Q0"":null,""ambiguous"":1,""objects"":2,""invisible"":1,""chaos"":1}","","","","","","","","","","","","","","","","","[]","Tokyo High Court Post Office","ChIJ8YHhS_OLGGARiMJcBz0Ip60","35.6752316","139.753074","JP","TOK","CTR","POS","1-chōme-1-4 Kasumigaseki, Chiyoda City, Tokyo 100-0013, Japan","jp_tok-c_pos_a_1","270","jp_tok-c_pos_a_1_270"
"trial","survey","58","684501","0.0-2.0-56.0","6101f6f45269e30a22fc4526","626166b218b78fee4e9d8d4d","62617c2250c473cb53992b94","3","9900","","{""P0_Q0"":null,""ambiguous"":2,""objects"":3,""invisible"":2,""chaos"":2}","","","","","","","","","","","","","","","","","[]","Hotel Route-Inn Nagahama Inter","ChIJmQLsstAuAmARAC8tYd9WWwc","35.3970578","136.2947216","JP","TOR","TOR","HTL","Japan, 〒526-0804 Shiga, Nagahama, Kanōchō, 字上角田884-1","jp_tor_htl_a_low1","90","jp_tor_htl_a_low1_90"
"trial","survey","59","695741","0.0-2.0-57.0","6101f6f45269e30a22fc4526","626166b218b78fee4e9d8d4d","62617c2250c473cb53992b94","3","11216","","{""P0_Q0"":null,""ambiguous"":5,""objects"":3,""invisible"":4,""chaos"":3}","","","","","","","","","","","","","","","","","[]","Nearby location of United States Postal Service (us_arb_pos_a_4)","ChIJR4RkkESuPIgRZJrbYhGLI8k","42.2762108","-83.7323861","US","ARB","ARB","POS","1315 Washtenaw Ave, Ann Arbor, MI 48104, USA","us_arb_pos_b_4","180","us_arb_pos_b_4_180"
"trial","survey","60","704666","0.0-2.0-58.0","6101f6f45269e30a22fc4526","626166b218b78fee4e9d8d4d","62617c2250c473cb53992b94","3","8904","","{""P0_Q0"":null,""ambiguous"":3,""objects"":4,""invisible"":3,""chaos"":4}","","","","","","","","","","","","","","","","","[]","The Pearl NYC","XTLGATPH","40.76144","-73.98553","US","NYC","CTR","HTL","233 W 49TH ST, NEW YORK, NY 10019","us_nyc-c_htl_a_high1","90","us_nyc-c_htl_a_high1_90"
"trial","survey","61","712499","0.0-2.0-59.0","6101f6f45269e30a22fc4526","626166b218b78fee4e9d8d4d","62617c2250c473cb53992b94","3","7810","","{""P0_Q0"":null,""ambiguous"":1,""objects"":1,""invisible"":1,""chaos"":1}","","","","","","","","","","","","","","","","","[]","Nearby location of Ann Arbor Hills Child Development Center (us_arb_sch_a_1)","ChIJayC39uGuPIgRi68_P3AKb4Y","42.2614403","-83.7036603","US","ARB","ARB","SCH","1620 Glenwood Rd, Ann Arbor, MI 48104, USA","us_arb_sch_b_1","180","us_arb_sch_b_1_180"
"trial","survey","62","720696","0.0-2.0-60.0","6101f6f45269e30a22fc4526","626166b218b78fee4e9d8d4d","62617c2250c473cb53992b94","3","8178","","{""P0_Q0"":null,""ambiguous"":1,""objects"":1,""invisible"":1,""chaos"":1}","","","","","","","","","","","","","","","","","[]","United States Postal Service","ChIJQ1Dpq1hYwokRhUTtnxqbRIw","40.7696441","-73.9833283","US","NYC","CTR","POS","27 W 60th St, New York, NY 10023, USA","us_nyc-c_pos_a_6","180","us_nyc-c_pos_a_6_180"
"trial","survey","63","734607","0.0-2.0-61.0","6101f6f45269e30a22fc4526","626166b218b78fee4e9d8d4d","62617c2250c473cb53992b94","3","13888","","{""P0_Q0"":null,""ambiguous"":3,""objects"":4,""invisible"":3,""chaos"":4}","","","","","","","","","","","","","","","","","[]","Nearby location of United States Postal Service (us_nyc-c_pos_a_1)","ChIJb5p6MRP2wokR4nQvWgRky_4","40.8100051","-73.9519042","US","NYC","CTR","POS","2311 Frederick Douglass Blvd, New York, NY 10027, USA","us_nyc-c_pos_b_1","180","us_nyc-c_pos_b_1_180"
"trial","survey","64","749386","0.0-2.0-62.0","6101f6f45269e30a22fc4526","626166b218b78fee4e9d8d4d","62617c2250c473cb53992b94","3","14756","","{""P0_Q0"":null,""ambiguous"":1,""objects"":4,""invisible"":2,""chaos"":2}","","","","","","","","","","","","","","","","","[]","United States Postal Service","ChIJj65Q2Jz2wokR_LoJ8_MV6lI","40.8386238","-73.9389823","US","NYC","CTR","POS","511 W 165th St, New York, NY 10032, USA","us_nyc-c_pos_a_4","180","us_nyc-c_pos_a_4_180"
"trial","survey","65","759516","0.0-2.0-63.0","6101f6f45269e30a22fc4526","626166b218b78fee4e9d8d4d","62617c2250c473cb53992b94","3","10105","","{""P0_Q0"":null,""ambiguous"":3,""objects"":2,""invisible"":4,""chaos"":2}","","","","","","","","","","","","","","","","","[]","United States Postal Service","ChIJb5pfwxb2wokR4-EvJ1w0znA","40.8036447","-73.9541827","US","NYC","CTR","POS","232 W 116th St, New York, NY 10026, USA","us_nyc-c_pos_a_7","180","us_nyc-c_pos_a_7_180"
"trial","survey","66","777346","0.0-2.0-64.0","6101f6f45269e30a22fc4526","626166b218b78fee4e9d8d4d","62617c2250c473cb53992b94","3","17805","","{""P0_Q0"":null,""ambiguous"":1,""objects"":2,""invisible"":2,""chaos"":2}","","","","","","","","","","","","","","","","","[]","Nearby location of Jonan Daini Elementary School (jp_tok-p_sch_a_5)","ChIJ2To8y2-KGGARuI3U_BCg3Sg","35.614051","139.744792","JP","TOK","PER","SCH","2-chōme-15-6 Minamishinagawa, Shinagawa City, Tokyo 140-0004, Japan","jp_tok-p_sch_b_5","90","jp_tok-p_sch_b_5_90"
"trial","survey","67","794288","0.0-2.0-65.0","6101f6f45269e30a22fc4526","626166b218b78fee4e9d8d4d","62617c2250c473cb53992b94","3","16911","","{""P0_Q0"":null,""ambiguous"":3,""objects"":2,""invisible"":2,""chaos"":2}","","","","","","","","","","","","","","","","","[]","Jittered SV for Aman Tokyo (jp_tok-c_htl_a_ultra1)","ChIJVVWFvviLGGARpWS-yu8uP1k","35.6853286","139.7666855","JP","TOK","CTR","HTL","2-chōme-2-1 Ōtemachi, Chiyoda City, Tokyo 100-0004, Japan","jp_tok-c_htl_a_ultra1","180","jp_tok-c_htl_a_ultra1_180"
"trial","survey","68","844829","0.0-2.0-66.0","6101f6f45269e30a22fc4526","626166b218b78fee4e9d8d4d","62617c2250c473cb53992b94","3","50516","","{""P0_Q0"":null,""ambiguous"":4,""objects"":2,""invisible"":4,""chaos"":2}","","","","","","","","","","","","","","","","","[]","Nearby location of United States Postal Service (us_nyc-c_pos_a_6)","ChIJ63f0hz9ZwokRTruThu3Ng6s","40.7682731","-73.9822808","US","NYC","CTR","POS","15 Columbus Cir, New York, NY 10019, USA","us_nyc-c_pos_b_6","90","us_nyc-c_pos_b_6_90"
"trial","survey","69","851113","0.0-2.0-67.0","6101f6f45269e30a22fc4526","626166b218b78fee4e9d8d4d","62617c2250c473cb53992b94","3","6258","","{""P0_Q0"":null,""ambiguous"":4,""objects"":4,""invisible"":3,""chaos"":3}","","","","","","","","","","","","","","","","","[]","Nearby location of Flexstay Inn Shinagawa (jp_tok-p_htl_a_mid2)","ChIJd27F2VyKGGARc1F75nZNGYI","35.6235067","139.7415021","JP","TOK","PER","HTL","1-chōme-8-19 Kitashinagawa, Shinagawa City, Tokyo 140-0001, Japan","jp_tok-p_htl_b_mid2","270","jp_tok-p_htl_b_mid2_270"
"demographics","survey-html-form","70","863538","0.0-2.0-68.0","6101f6f45269e30a22fc4526","626166b218b78fee4e9d8d4d","62617c2250c473cb53992b94","3","12335","","{""age"":""25"",""gender"":""female"",""gender-self-describe"":"""",""zipcode"":""40219""}","","","","","","","","","","","","","","","","","","","","","","","","","","","","",""
"demographics","survey","71","877432","0.0-2.0-69.0","6101f6f45269e30a22fc4526","626166b218b78fee4e9d8d4d","62617c2250c473cb53992b94","3","13849","","{""P0_Q0"":null,""outsideUS"":""No"",""outsideUS_years"":""""}","","","","","","","","","","","","","","","","","[]","","","","","","","","","","","",""
"end-survey","survey-text","72","886521","0.0-2.0-70.0","6101f6f45269e30a22fc4526","626166b218b78fee4e9d8d4d","62617c2250c473cb53992b94","3","9078","","{""Q0"":""""}","","","","","","","","","","","","","","","","","","","","","","","","","","","","",""
