"task","trial_type","trial_index","time_elapsed","internal_node_id","subject_id","study_id","session_id","group","rt","stimulus","response","width","height","webaudio","browser","browser_version","mobile","os","fullscreen","vsync_rate","webcam","microphone","success","timeout","failed_images","failed_audio","failed_video","accuracy","name","place_id","lat","lng","culture","loc1","loc2","loct","address","loc_id_prev","angle","loc_id"
"pavlovia-init","pavlovia","0","1379","0.0-0.0","604a10844bde8be09a850300","626166b218b78fee4e9d8d4c","626177a9e2fe1300cce46255","10","","","","","","","","","","","","","","","","","","","","","","","","","","","","","","","",""
"consent","html-button-response","1","47267","0.0-1.0","604a10844bde8be09a850300","626166b218b78fee4e9d8d4c","626177a9e2fe1300cce46255","10","45886","
        <div style=""font-size: 80%; max-width:700px"">
            <h2>Informed Consent</h2><br>
        
            <div style=""text-align: left"">
            <h3>Streetscape Perceptions</h3>
            <b>HUM00189138</b>
            <br><hr>
        
            <h4>DESCRIPTION</h4>
            <p>
                In this study, you will view Google Street View images. You will then answer questions about your impressions of the streetscapes presented in those images.
            </p><br>
        
            <h4>TIME INVOLVEMENT</h4>
            <p>Your participation will take approximately 30 minutes.</p><br>
        
            <h4>RISKS AND BENEFITS</h4>
            <p>
                The risks associated with this study are minimal. The benefits which may reasonably be expected to result from this study are none.  We cannot and do not guarantee or promise that you will receive any benefits from this study. 
            </p><br>
        
            <h4>PAYMENTS</h4>
            <p>You will be paid <b>$5.00</b> for your participation.</p><br>
        
            <h4>SUBJECT'S RIGHTS</h4>
            <p>
                If you have read this form and have decided to participate in this project, please understand your participation is voluntary and you have the right to withdraw your consent or discontinue participation at any time without penalty or loss of benefits to which you are otherwise entitled.  The alternative is not to participate.  You have the right to refuse to answer particular questions.  
            </p>
        
            <p>
                Your individual privacy will be maintained in all published and written data resulting from the study. Your responses will be kept confidential: you are given a participant code, and no one, not even the research team, can match that code with your identity. Your collected information may also be shared with other researchers as part of our dataset.
            </p><br>
        
            <h4>CONTACT INFORMATION</h4>
            <p>
                Questions: If you have any questions, concerns or complaints about this research, its procedures, risks and benefits, contact the Protocol Director, Nicholas Camp, npcamp@umich.edu, (443) 851-6783.
            </p>
        
            <p>
                If you have questions about your rights as a research participant, or wish to obtain information, ask questions or discuss any concerns about this study with someone other than the researcher(s), please contact the following:
                <br><br>
        
                University of Michigan<br>
                Health Sciences and Behavioral Sciences Institutional Review Board
                (IRB-HSBS)<br>
                2800 Plymouth Road <br>
                Building 520, Room 1169 <br>
                Ann Arbor, MI 48109-2800 <br>
                Telephone: 734-936-0933 or toll free (866) 936-0933 <br>
                Fax: 734-936-1852 <br />
                E-mail: irbhsbs@umich.edu <br>
            </p>
        
            <p>
                You can also contact the University of Michigan Compliance Hotline at 1-866-990-0111. You may also print this consent form to keep.
            </p>
            <br>
        
            <div class=""alert alert-warning""><b>
                Do you consent to participate in this study? If you consent to participate in this study, please click “Accept and continue.”
            </b></div>
            </div>
        </div>
    ","1","","","","","","","","","","","","","","","","","","","","","","","","","","","","",""
"browser-check","browser-check","2","49262","0.0-2.0-0.0","604a10844bde8be09a850300","626166b218b78fee4e9d8d4c","626177a9e2fe1300cce46255","10","","","","2560","1321","true","chrome","100.0.4896","false","Windows 10","true","30.18","true","true","","","","","","","","","","","","","","","","","",""
"","preload","3","50366","0.0-2.0-1.0","604a10844bde8be09a850300","626166b218b78fee4e9d8d4c","626177a9e2fe1300cce46255","10","","","","","","","","","","","","","","","true","false","[]","[]","[]","","","","","","","","","","","","",""
"instructions","html-button-response","4","56082","0.0-2.0-2.0","604a10844bde8be09a850300","626166b218b78fee4e9d8d4c","626177a9e2fe1300cce46255","10","5715","
        <div class=""text-container"">
            <h1>Welcome to the study!</h1>
            
            <div class=""text-left"">
                <p>
                    In this study, we are interested in how people think about different Google Street View images. Google Street View takes pictures of streets used for Google Earth and Google Maps. You’ll see Google Street View images of different places and answer some questions about each one.
                </p>
            </div>
            
            <img src='
            https://maps.googleapis.com/maps/api/streetview?size=640x320
            &location=37.783631,-122.432766
            &heading=80
            &pitch=2
            &fov=100
            &radius=150
            &key=AIzaSyC2OxRDg6qlzZDj7j0UAD2XyE0qWokLvvs
            &source=outdoor'>
        
            <br>
        <br>
    ","0","","","","","","","","","","","","","","","","","","","","","","","","","","","","",""
"instructions","html-button-response","5","70018","0.0-2.0-3.0","604a10844bde8be09a850300","626166b218b78fee4e9d8d4c","626177a9e2fe1300cce46255","10","13621","
        <style>
            img.small {
            max-width: 100px;
            }
            li {
            text-indent: 40px;
            }
        </style>

        <div class=""text-container text-left"">
            <p>For each picture, we’d like your impressions of the scene:</p>
            
            <hr>
                Are there <b>clear, distinct boundaries</b> between objects in the scene, or are the <b>boundaries ambiguous or unclear</b>?
                
                <li>clear, distinct boundaries: <img class=""small"" src=""assets/img/ambiguous-low.png""></li>
                <li>ambiguous or unclear boundaries: <img class=""small"" src=""assets/img/ambiguous-high.png""></li>
            <hr>
            <br>
                Are there <b>only a few different objects</b> in the scene, or is there <b>a large number</b>?
            <br><br>
            <hr>
                Are only <b>a few parts</b> of the scene <b>invisible or obscured</b>, or are <b>many parts invisible or obscured</b>?
                
                <li>a few parts invisible or obscured: <img class=""small"" src=""assets/img/invisible-low.png""></li>
                <li>many parts invisible or obscured: <img class=""small"" src=""assets/img/invisible-high.png""></li>
            <hr>
            <br>
                Does the scene look <b>organized</b> or <b>chaotic</b> to you?
            <br><br>
            <hr>
            
            <p>
                There are no right or wrong answers: we are interested in <b>your</b> impression. Note that some images might have individual buildings or faces blurred for privacy. Please ignore these when making your judgments.
            </p>
        </div>
        <br>
    ","0","","","","","","","","","","","","","","","","","","","","","","","","","","","","",""
"instructions","html-button-response","6","74195","0.0-2.0-4.0","604a10844bde8be09a850300","626166b218b78fee4e9d8d4c","626177a9e2fe1300cce46255","10","4175","
        <div class=""text-container text-left"">
            <p>Please make sure you are doing this study in an area where you can focus and complete the survey in one sitting.</p>

            <p>Don’t spend too much time on any one picture, and, again go with your gut impression!</p>
            
            <p>The study should take about 30 minutes. We’ll let you know when you’re halfway through.</p>
        </div>
            
        <h3>Ready? Click next to get started!</h3>
        <br>
    ","0","","","","","","","","","","","","","","","","","","","","","","","","","","","","",""
"trial","survey","7","92344","0.0-2.0-5.0","604a10844bde8be09a850300","626166b218b78fee4e9d8d4c","626177a9e2fe1300cce46255","10","18084","","{""P0_Q0"":null,""ambiguous"":2,""objects"":2,""invisible"":3,""chaos"":4}","","","","","","","","","","","","","","","","","[]","Nearby location of Toshima Minami-Nagasaki Post Office (jp_tok-c_pos_a_4)","ChIJW9I5jqnyGGAR4LJcH4_S0to","35.725497","139.6854672","JP","TOK","CTR","POS","4-chōme-29-3 Minaminagasaki, Toshima City, Tokyo 171-0052, Japan","jp_tok-c_pos_b_4","180","jp_tok-c_pos_b_4_180"
"trial","survey","8","109935","0.0-2.0-6.0","604a10844bde8be09a850300","626166b218b78fee4e9d8d4c","626177a9e2fe1300cce46255","10","17577","","{""P0_Q0"":null,""ambiguous"":4,""objects"":5,""invisible"":2,""chaos"":4}","","","","","","","","","","","","","","","","","[]","Nearby location of Ann Arbor Christian School (us_arb_sch_a_2)","ChIJx979uW-tPIgRK2esjhwtDDE","42.352939","-83.7497999","US","ARB","ARB","SCH","5460 Whitmore Lake Rd, Ann Arbor, MI 48105, USA","us_arb_sch_b_2","270","us_arb_sch_b_2_270"
"trial","survey","9","126393","0.0-2.0-7.0","604a10844bde8be09a850300","626166b218b78fee4e9d8d4c","626177a9e2fe1300cce46255","10","16446","","{""P0_Q0"":null,""ambiguous"":4,""objects"":3,""invisible"":4,""chaos"":3}","","","","","","","","","","","","","","","","","[]","Rakuten STAY HOUSE×WILLSTYLE 八幡堀","ChIJ29I3jA95AWAR_5xuRG3klyw","35.1418554","136.0963056","JP","HIK","HIK","HTL","580-6 Tagachō, Omihachiman, Shiga 523-0821, Japan","jp_hik_htl_a_high1","180","jp_hik_htl_a_high1_180"
"trial","survey","10","143143","0.0-2.0-8.0","604a10844bde8be09a850300","626166b218b78fee4e9d8d4c","626177a9e2fe1300cce46255","10","16734","","{""P0_Q0"":null,""ambiguous"":3,""objects"":2,""invisible"":4,""chaos"":3}","","","","","","","","","","","","","","","","","[]","Nearby location of レジーナリゾートびわ湖長浜 (jp_hik_htl_a_high2)","ChIJJclVFRspAmARIuM3ZJ4DJj4","35.3795647","136.2582185","JP","HIK","HIK","HTL","1-6-2 Kanebōchō, Nagahama, Shiga 526-0068, Japan","jp_hik_htl_b_high2","270","jp_hik_htl_b_high2_270"
"trial","survey","11","155929","0.0-2.0-9.0","604a10844bde8be09a850300","626166b218b78fee4e9d8d4c","626177a9e2fe1300cce46255","10","12772","","{""P0_Q0"":null,""ambiguous"":5,""objects"":2,""invisible"":3,""chaos"":4}","","","","","","","","","","","","","","","","","[]","Nearby location of 豊島区立朝日小学校 ひいらぎ学級 (jp_tok-c_sch_a_2)","ChIJsX5PhoGNGGARkg3BIt6IYKg","35.7421166","139.7340459","JP","TOK","CTR","SCH","4-chōme-57-10 Nishigahara, Kita City, Tokyo 114-0024, Japan","jp_tok-c_sch_b_2","0","jp_tok-c_sch_b_2_0"
"trial","survey","12","166303","0.0-2.0-10.0","604a10844bde8be09a850300","626166b218b78fee4e9d8d4c","626177a9e2fe1300cce46255","10","10354","","{""P0_Q0"":null,""ambiguous"":1,""objects"":2,""invisible"":2,""chaos"":1}","","","","","","","","","","","","","","","","","[]","Nearby location of Nihonbashi Elementary School (jp_tok-c_sch_a_7)","ChIJNS-5qVqJGGARajMXSGlTOSk","35.6833699","139.7826794","JP","TOK","CTR","SCH","1-chōme-15-9 Nihonbashikakigarachō, Chuo City, Tokyo 103-0014, Japan","jp_tok-c_sch_b_7","270","jp_tok-c_sch_b_7_270"
"trial","survey","13","176602","0.0-2.0-11.0","604a10844bde8be09a850300","626166b218b78fee4e9d8d4c","626177a9e2fe1300cce46255","10","10282","","{""P0_Q0"":null,""ambiguous"":4,""objects"":2,""invisible"":5,""chaos"":3}","","","","","","","","","","","","","","","","","[]","Nearby location of 長浜BGホテル (us_chl_htl_a_mid1)","ChIJ2S_MbyspAmARkndCsjafTIg","35.3930344","136.2840486","JP","TOR","TOR","HTL","222-1 Kawasakichō, Nagahama, Shiga 526-0846, Japan","jp_tor_htl_b_mid1","180","jp_tor_htl_b_mid1_180"
"trial","survey","14","190241","0.0-2.0-12.0","604a10844bde8be09a850300","626166b218b78fee4e9d8d4c","626177a9e2fe1300cce46255","10","13626","","{""P0_Q0"":null,""ambiguous"":4,""objects"":4,""invisible"":5,""chaos"":4}","","","","","","","","","","","","","","","","","[]","Minami-Ikebukuro Post Office","ChIJZ0rDTmiNGGARmRNW8DDznoU","35.7271243","139.7133376","JP","TOK","CTR","POS","2-chōme-24-1 Minamiikebukuro, Toshima City, Tokyo 171-0022, Japan","jp_tok-c_pos_a_6","270","jp_tok-c_pos_a_6_270"
"trial","survey","15","205111","0.0-2.0-13.0","604a10844bde8be09a850300","626166b218b78fee4e9d8d4c","626177a9e2fe1300cce46255","10","14854","","{""P0_Q0"":null,""ambiguous"":5,""objects"":4,""invisible"":4,""chaos"":3}","","","","","","","","","","","","","","","","","[]","Nearby location of Kakezuka Elementary School (jp_tok-c_sch_a_4)","ChIJZ3Y9uRWLGGAR3VkcUPtDdr0","35.6430912","139.71302","JP","TOK","CTR","SCH","4 Chome-20 Ebisu, Shibuya City, Tokyo 150-0013, Japan","jp_tok-c_sch_b_4","0","jp_tok-c_sch_b_4_0"
"trial","survey","16","219772","0.0-2.0-14.0","604a10844bde8be09a850300","626166b218b78fee4e9d8d4c","626177a9e2fe1300cce46255","10","14638","","{""P0_Q0"":null,""ambiguous"":5,""objects"":3,""invisible"":4,""chaos"":4}","","","","","","","","","","","","","","","","","[]","Jonan Daini Elementary School","ChIJOzDZZm6KGGARfmI0vkKc_Kw","35.6154264","139.7461583","JP","TOK","PER","SCH","3-chōme-4-5 Higashishinagawa, Shinagawa City, Tokyo 140-0002, Japan","jp_tok-p_sch_a_5","180","jp_tok-p_sch_a_5_180"
"trial","survey","17","235535","0.0-2.0-15.0","604a10844bde8be09a850300","626166b218b78fee4e9d8d4c","626177a9e2fe1300cce46255","10","15745","","{""P0_Q0"":null,""ambiguous"":2,""objects"":3,""invisible"":4,""chaos"":2}","","","","","","","","","","","","","","","","","[]","Sandy Hook CenTer","ChIJdzryqpZZwokRskdUpqxDvaI","40.7330008","-74.0005218","US","NYC","CTR","SCH","136 Waverly Pl, New York, NY 10014, USA","us_nyc-c_sch_a_4","90","us_nyc-c_sch_a_4_90"
"trial","survey","18","255120","0.0-2.0-16.0","604a10844bde8be09a850300","626166b218b78fee4e9d8d4c","626177a9e2fe1300cce46255","10","19569","","{""P0_Q0"":null,""ambiguous"":4,""objects"":4,""invisible"":5,""chaos"":4}","","","","","","","","","","","","","","","","","[]","Sasazuka Elementary School","ChIJ93VkemvzGGARQtwBVOaMyuk","35.6759768","139.6693391","JP","TOK","CTR","SCH","2-chōme-8-1 Sasazuka, Shibuya City, Tokyo 151-0073, Japan","jp_tok-c_sch_a_6","0","jp_tok-c_sch_a_6_0"
"trial","survey","19","268101","0.0-2.0-17.0","604a10844bde8be09a850300","626166b218b78fee4e9d8d4c","626177a9e2fe1300cce46255","10","12966","","{""P0_Q0"":null,""ambiguous"":2,""objects"":2,""invisible"":1,""chaos"":2}","","","","","","","","","","","","","","","","","[]","Red Roof PLUS Ann Arbor-Univ North","RFARB045","42.30672","-83.69025","US","ARB","ARB","HTL","3621 PLYMOUTH ROAD, ANN ARBOR, MI 48105","us_arb_htl_a_low1","0","us_arb_htl_a_low1_0"
"trial","survey","20","284115","0.0-2.0-18.0","604a10844bde8be09a850300","626166b218b78fee4e9d8d4c","626177a9e2fe1300cce46255","10","15999","","{""P0_Q0"":null,""ambiguous"":2,""objects"":2,""invisible"":2,""chaos"":3}","","","","","","","","","","","","","","","","","[]","Hikoneatohoteru","ChIJcSdJDVfUA2ARZ1X1w0kURVw","35.2392938","136.255227","JP","HIK","HIK","HTL","1707-1 Takamiyachō, Hikone, Shiga 522-0201, Japan","jp_hik_htl_a_low1","0","jp_hik_htl_a_low1_0"
"trial","survey","21","336667","0.0-2.0-19.0","604a10844bde8be09a850300","626166b218b78fee4e9d8d4c","626177a9e2fe1300cce46255","10","52539","","{""P0_Q0"":null,""ambiguous"":1,""objects"":3,""invisible"":2,""chaos"":1}","","","","","","","","","","","","","","","","","[]","United States Postal Service","ChIJj65Q2Jz2wokR_LoJ8_MV6lI","40.8386238","-73.9389823","US","NYC","CTR","POS","511 W 165th St, New York, NY 10032, USA","us_nyc-c_pos_a_4","0","us_nyc-c_pos_a_4_0"
"trial","survey","22","348612","0.0-2.0-20.0","604a10844bde8be09a850300","626166b218b78fee4e9d8d4c","626177a9e2fe1300cce46255","10","11933","","{""P0_Q0"":null,""ambiguous"":2,""objects"":3,""invisible"":3,""chaos"":2}","","","","","","","","","","","","","","","","","[]","Nearby location of Sasazuka Elementary School (jp_tok-c_sch_a_6)","ChIJcyp_VT3zGGARh4qzbdhRhms","35.6750919","139.6707803","JP","TOK","CTR","SCH","Japan, 〒151-0073 Tokyo, Shibuya City, Sasazuka, 1-chōme−52−３ ルアンビル","jp_tok-c_sch_b_6","90","jp_tok-c_sch_b_6_90"
"trial","survey","23","362711","0.0-2.0-21.0","604a10844bde8be09a850300","626166b218b78fee4e9d8d4c","626177a9e2fe1300cce46255","10","14085","","{""P0_Q0"":null,""ambiguous"":3,""objects"":3,""invisible"":4,""chaos"":3}","","","","","","","","","","","","","","","","","[]","Shinshuku Elementary School","ChIJM1VHO19gGGARYHbYkz0tS8E","35.5572368","139.7158925","JP","TOK","PER","SCH","1-chōme-5-1 Kamatahonchō, Ota City, Tokyo 144-0053, Japan","jp_tok-p_sch_a_2","270","jp_tok-p_sch_a_2_270"
"trial","survey","24","374091","0.0-2.0-22.0","604a10844bde8be09a850300","626166b218b78fee4e9d8d4c","626177a9e2fe1300cce46255","10","11370","","{""P0_Q0"":null,""ambiguous"":1,""objects"":1,""invisible"":1,""chaos"":2}","","","","","","","","","","","","","","","","","[]","Nearby location of Red Roof PLUS Ann Arbor-Univ North (us_arb_htl_a_low1)","ChIJDRKdQxqsPIgRu07gYIBr9Ds","42.3074995","-83.6914727","US","ARB","ARB","HTL","2310 Green Rd, Ann Arbor, MI 48105, USA","us_arb_htl_b_low1","180","us_arb_htl_b_low1_180"
"trial","survey","25","387802","0.0-2.0-23.0","604a10844bde8be09a850300","626166b218b78fee4e9d8d4c","626177a9e2fe1300cce46255","10","13694","","{""P0_Q0"":null,""ambiguous"":2,""objects"":3,""invisible"":4,""chaos"":2}","","","","","","","","","","","","","","","","","[]","Nagahama Shiritsu Torahime Elementary School","ChIJWVB8Ap8oAmARFLmHXCq8zOo","35.4207316","136.2639813","JP","TOR","TOR","SCH","88 Gomura, Nagahama, Shiga 529-0141, Japan","jp_tor_sch_a_1","180","jp_tor_sch_a_1_180"
"trial","survey","26","408894","0.0-2.0-24.0","604a10844bde8be09a850300","626166b218b78fee4e9d8d4c","626177a9e2fe1300cce46255","10","21083","","{""P0_Q0"":null,""ambiguous"":1,""objects"":4,""invisible"":3,""chaos"":2}","","","","","","","","","","","","","","","","","[]","Nearby location of Yotsuya Station Post Office (jp_tok-c_pos_a_3)","ChIJ5QGWpIuMGGARM3syjI6N6t8","35.6864179","139.7285004","JP","TOK","CTR","POS","1-chōme-8-3 Yotsuya, Shinjuku City, Tokyo 160-0004, Japan","jp_tok-c_pos_b_3","270","jp_tok-c_pos_b_3_270"
"trial","survey","27","421742","0.0-2.0-25.0","604a10844bde8be09a850300","626166b218b78fee4e9d8d4c","626177a9e2fe1300cce46255","10","12834","","{""P0_Q0"":null,""ambiguous"":3,""objects"":3,""invisible"":4,""chaos"":3}","","","","","","","","","","","","","","","","","[]","United States Postal Service","ChIJZSVRGDq7PIgRlo_a8I0Tib8","42.1718067","-83.7735227","US","ARB","ARB","POS","108 N Maple Rd, Saline, MI 48176, USA","us_arb_pos_a_1","180","us_arb_pos_a_1_180"
"trial","survey","28","431750","0.0-2.0-26.0","604a10844bde8be09a850300","626166b218b78fee4e9d8d4c","626177a9e2fe1300cce46255","10","10001","","{""P0_Q0"":null,""ambiguous"":1,""objects"":1,""invisible"":2,""chaos"":1}","","","","","","","","","","","","","","","","","[]","Nearby location of Mitsui Garden Kyobashi Tokyo (jp_tok-c_htl_a_low2)","ChIJp2pEW_2LGGARnNNe1pDMCrc","35.6801013","139.7722917","JP","TOK","CTR","HTL","3 Chome-7 Nihonbashi, Chuo City, Tokyo 103-0027, Japan","jp_tok-c_htl_b_low2","90","jp_tok-c_htl_b_low2_90"
"trial","survey","29","442940","0.0-2.0-27.0","604a10844bde8be09a850300","626166b218b78fee4e9d8d4c","626177a9e2fe1300cce46255","10","11177","","{""P0_Q0"":null,""ambiguous"":1,""objects"":1,""invisible"":1,""chaos"":1}","","","","","","","","","","","","","","","","","[]","Multicultural Academy","ChIJKdawbZOlPIgRLE8l7DLN_lo","42.20752","-83.700335","US","ARB","ARB","SCH","5550 Platt Rd, Ann Arbor, MI 48108, USA","us_arb_sch_a_3","0","us_arb_sch_a_3_0"
"trial","survey","30","460378","0.0-2.0-28.0","604a10844bde8be09a850300","626166b218b78fee4e9d8d4c","626177a9e2fe1300cce46255","10","17417","","{""P0_Q0"":null,""ambiguous"":3,""objects"":2,""invisible"":4,""chaos"":5}","","","","","","","","","","","","","","","","","[]","Nearby location of Nagahama Shiritsu Torahime Elementary School (jp_tor_sch_a_1)","ChIJfT7yNZ8oAmAROTHUpaMv9Ak","35.419735","136.265362","JP","TOR","TOR","SCH","2410 Miyabechō, Nagahama, Shiga 529-0112, Japan","jp_tor_sch_b_1","0","jp_tor_sch_b_1_0"
"trial","survey","31","475996","0.0-2.0-29.0","604a10844bde8be09a850300","626166b218b78fee4e9d8d4c","626177a9e2fe1300cce46255","10","15607","","{""P0_Q0"":null,""ambiguous"":4,""objects"":4,""invisible"":5,""chaos"":2}","","","","","","","","","","","","","","","","","[]","Nearby location of Mitsui Garden Kyobashi Tokyo (jp_tok-c_htl_a_low2)","ChIJp2pEW_2LGGARnNNe1pDMCrc","35.6801013","139.7722917","JP","TOK","CTR","HTL","3 Chome-7 Nihonbashi, Chuo City, Tokyo 103-0027, Japan","jp_tok-c_htl_b_low2","180","jp_tok-c_htl_b_low2_180"
"trial","survey","32","490302","0.0-2.0-30.0","604a10844bde8be09a850300","626166b218b78fee4e9d8d4c","626177a9e2fe1300cce46255","10","14294","","{""P0_Q0"":null,""ambiguous"":4,""objects"":5,""invisible"":5,""chaos"":3}","","","","","","","","","","","","","","","","","[]","Nearby location of Flexstay Inn Shinagawa (jp_tok-p_htl_a_mid2)","ChIJd27F2VyKGGARc1F75nZNGYI","35.6235067","139.7415021","JP","TOK","PER","HTL","1-chōme-8-19 Kitashinagawa, Shinagawa City, Tokyo 140-0001, Japan","jp_tok-p_htl_b_mid2","90","jp_tok-p_htl_b_mid2_90"
"trial","survey","33","506636","0.0-2.0-31.0","604a10844bde8be09a850300","626166b218b78fee4e9d8d4c","626177a9e2fe1300cce46255","10","16325","","{""P0_Q0"":null,""ambiguous"":2,""objects"":3,""invisible"":3,""chaos"":2}","","","","","","","","","","","","","","","","","[]","Nearby location of Hilton New York JFK Airport, NY (us_nyc-p_htl_a_mid2)","ChIJvcyCtx9nwokREAp7AP5NM9s","40.6672608","-73.7964601","US","NYC","PER","HTL","135-25 142nd St, Queens, NY 11436, USA","us_nyc-p_htl_b_mid2","0","us_nyc-p_htl_b_mid2_0"
"trial","survey","34","518069","0.0-2.0-32.0","604a10844bde8be09a850300","626166b218b78fee4e9d8d4c","626177a9e2fe1300cce46255","10","11411","","{""P0_Q0"":null,""ambiguous"":4,""objects"":1,""invisible"":3,""chaos"":3}","","","","","","","","","","","","","","","","","[]","Comfort Inn","ChIJ-4dsD7jOPIgR_03DSz1SKuQ","42.2976226","-84.0277709","US","CHL","CHL","HTL","1645 Commerce Park Dr, Chelsea, MI 48118, USA","us_chl_htl_a_low1","180","us_chl_htl_a_low1_180"
"trial","survey","35","530569","0.0-2.0-33.0","604a10844bde8be09a850300","626166b218b78fee4e9d8d4c","626177a9e2fe1300cce46255","10","12491","","{""P0_Q0"":null,""ambiguous"":2,""objects"":1,""invisible"":1,""chaos"":1}","","","","","","","","","","","","","","","","","[]","Nearby location of Adachi Asahicho Post Office (jp_tok-p_pos_a_4)","ChIJhXM9R1KOGGAR7zoOSZK_VIU","35.7480131","139.8100604","JP","TOK","PER","POS","Japan, 〒120-0026 Tokyo, Adachi City, Senjuasahichō, 22−９ コーポ山田","jp_tok-p_pos_b_4","270","jp_tok-p_pos_b_4_270"
"trial","survey","36","542520","0.0-2.0-34.0","604a10844bde8be09a850300","626166b218b78fee4e9d8d4c","626177a9e2fe1300cce46255","10","11939","","{""P0_Q0"":null,""ambiguous"":5,""objects"":1,""invisible"":1,""chaos"":1}","","","","","","","","","","","","","","","","","[]","Nearby location of Best Western Plus Arena Hotel (us_nyc-p_htl_a_low1)","ChIJszayzJpbwokR1Pc20klCR2Y","40.679297","-73.947757","US","NYC","PER","HTL","170 Herkimer St, Brooklyn, NY 11216, USA","us_nyc-p_htl_b_low1","180","us_nyc-p_htl_b_low1_180"
"half-way","html-button-response","37","558283","0.0-2.0-35.0","604a10844bde8be09a850300","626166b218b78fee4e9d8d4c","626177a9e2fe1300cce46255","10","null","
            <h3>You are now half way through the study.</h3>
            <p>Please take a quick, 15-second break before you continue.</p>
            <img src='assets/img/countdown-15.gif'>
            <p>The study will automatically advance forward after the countdown is complete. However, you may click ""Next"" to advance forward now if you wish.</p>
        ","null","","","","","","","","","","","","","","","","","","","","","","","","","","","","",""
"attention-check","survey","38","567919","0.0-2.0-36.0","604a10844bde8be09a850300","626166b218b78fee4e9d8d4c","626177a9e2fe1300cce46255","10","9625","","{""P0_Q0"":null,""ambiguous"":null,""objects"":null,""invisible"":null,""chaos"":null}","","","","","","","","","","","","","","","","","[]","","","","","","","","","","","",""
"trial","survey","39","584116","0.0-2.0-37.0","604a10844bde8be09a850300","626166b218b78fee4e9d8d4c","626177a9e2fe1300cce46255","10","16187","","{""P0_Q0"":null,""ambiguous"":5,""objects"":4,""invisible"":3,""chaos"":2}","","","","","","","","","","","","","","","","","[]","Success Academy Harlem 5","ChIJLXaSYHr2wokROx6Mq1FzC9A","40.820192","-73.9444568","US","NYC","CTR","SCH","301 W 140th St, New York, NY 10030, USA","us_nyc-c_sch_a_2","270","us_nyc-c_sch_a_2_270"
"trial","survey","40","599069","0.0-2.0-38.0","604a10844bde8be09a850300","626166b218b78fee4e9d8d4c","626177a9e2fe1300cce46255","10","14938","","{""P0_Q0"":null,""ambiguous"":2,""objects"":1,""invisible"":2,""chaos"":3}","","","","","","","","","","","","","","","","","[]","Jittered SV for Nearby location of 須賀谷温泉 (jp_tor_htl_a_high1) (jp_tor_htl_b_high1)","GhIJIiaXtQO6QUARjDUSVwQJYUA","35.4532382","136.2817798","JP","TOR","TOR","HTL","F73J+7P Nagahama, Shiga, Japan","jp_tor_htl_b_high1","0","jp_tor_htl_b_high1_0"
"trial","survey","41","623107","0.0-2.0-39.0","604a10844bde8be09a850300","626166b218b78fee4e9d8d4c","626177a9e2fe1300cce46255","10","24021","","{""P0_Q0"":null,""ambiguous"":4,""objects"":3,""invisible"":3,""chaos"":3}","","","","","","","","","","","","","","","","","[]","Chelsea House Victorian Inn","ChIJ1ap5tQHMPIgRXxz9M_-mKZc","42.3181667","-84.0196694","US","CHL","CHL","HTL","118 E Middle St, Chelsea, MI 48118, USA","us_chl_htl_a_high1","180","us_chl_htl_a_high1_180"
"trial","survey","42","639428","0.0-2.0-40.0","604a10844bde8be09a850300","626166b218b78fee4e9d8d4c","626177a9e2fe1300cce46255","10","16309","","{""P0_Q0"":null,""ambiguous"":4,""objects"":3,""invisible"":2,""chaos"":4}","","","","","","","","","","","","","","","","","[]","Best Western Plus Arena Hotel","BWJFK142","40.67815","-73.94879","US","NYC","PER","HTL","1324 ATLANTIC AVENUE, BROOKLYN, NY 11216","us_nyc-p_htl_a_low1","0","us_nyc-p_htl_a_low1_0"
"trial","survey","43","653381","0.0-2.0-41.0","604a10844bde8be09a850300","626166b218b78fee4e9d8d4c","626177a9e2fe1300cce46255","10","13943","","{""P0_Q0"":null,""ambiguous"":4,""objects"":2,""invisible"":4,""chaos"":3}","","","","","","","","","","","","","","","","","[]","The Westin Tokyo","WITYOTOK","35.64174","139.71551","JP","TOK","PER","HTL","1 4 1 MITA MEGURO KU, TOKYO 1538580","jp_tok-p_htl_a_high2","0","jp_tok-p_htl_a_high2_0"
"trial","survey","44","662090","0.0-2.0-42.0","604a10844bde8be09a850300","626166b218b78fee4e9d8d4c","626177a9e2fe1300cce46255","10","8697","","{""P0_Q0"":null,""ambiguous"":1,""objects"":1,""invisible"":1,""chaos"":2}","","","","","","","","","","","","","","","","","[]","Nearby location of Léman Manhattan Preparatory School (us_nyc-c_sch_a_8)","ChIJAVYKVhFawokRXaCXY0rBkQY","40.7050863","-74.0127568","US","NYC","CTR","SCH","9 Beaver St, New York, NY 10004, USA","us_nyc-c_sch_b_8","0","us_nyc-c_sch_b_8_0"
"trial","survey","45","675057","0.0-2.0-43.0","604a10844bde8be09a850300","626166b218b78fee4e9d8d4c","626177a9e2fe1300cce46255","10","12954","","{""P0_Q0"":null,""ambiguous"":1,""objects"":1,""invisible"":1,""chaos"":1}","","","","","","","","","","","","","","","","","[]","Nearby location of Red Roof PLUS Ann Arbor-Univ North (us_arb_htl_a_low1)","ChIJDRKdQxqsPIgRu07gYIBr9Ds","42.3074995","-83.6914727","US","ARB","ARB","HTL","2310 Green Rd, Ann Arbor, MI 48105, USA","us_arb_htl_b_low1","90","us_arb_htl_b_low1_90"
"trial","survey","46","687206","0.0-2.0-44.0","604a10844bde8be09a850300","626166b218b78fee4e9d8d4c","626177a9e2fe1300cce46255","10","12140","","{""P0_Q0"":null,""ambiguous"":3,""objects"":2,""invisible"":4,""chaos"":3}","","","","","","","","","","","","","","","","","[]","PS 146 Anna M. Short School","ChIJtwKR6hz2wokRPs0Ro5kWXS0","40.7897123","-73.9393805","US","NYC","CTR","SCH","421 E 106th St #4896, New York, NY 10029, USA","us_nyc-c_sch_a_5","0","us_nyc-c_sch_a_5_0"
"trial","survey","47","703165","0.0-2.0-45.0","604a10844bde8be09a850300","626166b218b78fee4e9d8d4c","626177a9e2fe1300cce46255","10","15948","","{""P0_Q0"":null,""ambiguous"":2,""objects"":2,""invisible"":4,""chaos"":2}","","","","","","","","","","","","","","","","","[]","Baymont by Wyndham Chelsea","ChIJ3WjGMLjOPIgRTSh5bhMfx-Q","42.2995297","-84.0281015","US","CHL","CHL","HTL","1540 Commerce Park Dr, Chelsea, MI 48118, USA","us_chl_htl_a_mid1","270","us_chl_htl_a_mid1_270"
"trial","survey","48","723188","0.0-2.0-46.0","604a10844bde8be09a850300","626166b218b78fee4e9d8d4c","626177a9e2fe1300cce46255","10","20012","","{""P0_Q0"":null,""ambiguous"":4,""objects"":3,""invisible"":4,""chaos"":3}","","","","","","","","","","","","","","","","","[]","Nearby location of Sandy Hook CenTer (us_nyc-c_sch_a_4)","ChIJVVVgOJFZwokRN9n4QjPq_Dc","40.731952","-73.999183","US","NYC","CTR","SCH","31 Washington Square W, New York, NY 10011, USA","us_nyc-c_sch_b_4","90","us_nyc-c_sch_b_4_90"
"trial","survey","49","740120","0.0-2.0-47.0","604a10844bde8be09a850300","626166b218b78fee4e9d8d4c","626177a9e2fe1300cce46255","10","16903","","{""P0_Q0"":null,""ambiguous"":2,""objects"":3,""invisible"":4,""chaos"":3}","","","","","","","","","","","","","","","","","[]","Nearby location of Higashi-Asakusa Elementary School (jp_tok-c_sch_a_8)","ChIJAytTi-2OGGARfOL1JBbMOoM","35.725672","139.7971627","JP","TOK","CTR","SCH","Japan, 〒111-0021 Tokyo, Taito City, Nihonzutsumi, 1-chōme−31−２ 平乃屋","jp_tok-c_sch_b_8","90","jp_tok-c_sch_b_8_90"
"trial","survey","50","760072","0.0-2.0-48.0","604a10844bde8be09a850300","626166b218b78fee4e9d8d4c","626177a9e2fe1300cce46255","10","19938","","{""P0_Q0"":null,""ambiguous"":2,""objects"":3,""invisible"":2,""chaos"":2}","","","","","","","","","","","","","","","","","[]","Hilton New York JFK Airport, NY","HHJFK153","40.66771","-73.79584","US","NYC","PER","HTL","144 02 135TH AVENUE, JAMAICA, NY 11436","us_nyc-p_htl_a_mid2","90","us_nyc-p_htl_a_mid2_90"
"trial","survey","51","773914","0.0-2.0-49.0","604a10844bde8be09a850300","626166b218b78fee4e9d8d4c","626177a9e2fe1300cce46255","10","13825","","{""P0_Q0"":null,""ambiguous"":2,""objects"":3,""invisible"":3,""chaos"":2}","","","","","","","","","","","","","","","","","[]","United States Postal Service","ChIJRxSbQ7LOPIgRxY-tEHFOePE","42.3058978","-84.0197951","US","CHL","CHL","POS","1101 S Main St Ste 100, Chelsea, MI 48118, USA","us_chl_pos_a_1","180","us_chl_pos_a_1_180"
"trial","survey","52","783594","0.0-2.0-50.0","604a10844bde8be09a850300","626166b218b78fee4e9d8d4c","626177a9e2fe1300cce46255","10","9665","","{""P0_Q0"":null,""ambiguous"":1,""objects"":1,""invisible"":2,""chaos"":2}","","","","","","","","","","","","","","","","","[]","Ann Arbor Christian School","ChIJ1SluE2-tPIgR2t57M0S5d6M","42.354132","-83.750108","US","ARB","ARB","SCH","5500 Whitmore Lake Rd, Ann Arbor, MI 48105, USA","us_arb_sch_a_2","0","us_arb_sch_a_2_0"
"trial","survey","53","799059","0.0-2.0-51.0","604a10844bde8be09a850300","626166b218b78fee4e9d8d4c","626177a9e2fe1300cce46255","10","15452","","{""P0_Q0"":null,""ambiguous"":4,""objects"":3,""invisible"":3,""chaos"":4}","","","","","","","","","","","","","","","","","[]","Nearby location of Léman Manhattan Preparatory School (us_nyc-c_sch_a_8)","ChIJAVYKVhFawokRXaCXY0rBkQY","40.7050863","-74.0127568","US","NYC","CTR","SCH","9 Beaver St, New York, NY 10004, USA","us_nyc-c_sch_b_8","90","us_nyc-c_sch_b_8_90"
"trial","survey","54","812654","0.0-2.0-52.0","604a10844bde8be09a850300","626166b218b78fee4e9d8d4c","626177a9e2fe1300cce46255","10","13585","","{""P0_Q0"":null,""ambiguous"":4,""objects"":3,""invisible"":3,""chaos"":2}","","","","","","","","","","","","","","","","","[]","United States Postal Service","ChIJ1WavSUSuPIgRi9j9aKANWYg","42.2745042","-83.7339227","US","ARB","ARB","POS","1214 S University Ave Ste S104, Ann Arbor, MI 48104, USA","us_arb_pos_a_4","270","us_arb_pos_a_4_270"
"trial","survey","55","829244","0.0-2.0-53.0","604a10844bde8be09a850300","626166b218b78fee4e9d8d4c","626177a9e2fe1300cce46255","10","16577","","{""P0_Q0"":null,""ambiguous"":2,""objects"":2,""invisible"":1,""chaos"":3}","","","","","","","","","","","","","","","","","[]","BASIS Independent Manhattan","ChIJcxgyLyf2wokRA7fDLLpP4Co","40.7945131","-73.9660392","US","NYC","CTR","SCH","795 Columbus Ave, New York, NY 10025, USA","us_nyc-c_sch_a_1","90","us_nyc-c_sch_a_1_90"
"trial","survey","56","846418","0.0-2.0-54.0","604a10844bde8be09a850300","626166b218b78fee4e9d8d4c","626177a9e2fe1300cce46255","10","17160","","{""P0_Q0"":null,""ambiguous"":3,""objects"":2,""invisible"":4,""chaos"":2}","","","","","","","","","","","","","","","","","[]","Katsushika Higashishinkoiwa Post Office","ChIJRa6FOAeGGGAR0DyxE6La1Zw","35.7226708","139.8606781","JP","TOK","PER","POS","Japan, 〒124-0023 Tokyo, Katsushika City, Higashishinkoiwa, 3-chōme−11−１１−５ 葛飾東新小岩郵便局","jp_tok-p_pos_a_6","270","jp_tok-p_pos_a_6_270"
"trial","survey","57","861196","0.0-2.0-55.0","604a10844bde8be09a850300","626166b218b78fee4e9d8d4c","626177a9e2fe1300cce46255","10","14759","","{""P0_Q0"":null,""ambiguous"":4,""objects"":5,""invisible"":4,""chaos"":5}","","","","","","","","","","","","","","","","","[]","Daiwa Roynet Hotel Tokyo-Osaki","HSTYOAIZ","35.61815","139.72674","JP","TOK","PER","HTL","2-1-3, OSAKI, TOKYO 141-0032","jp_tok-p_htl_a_low2","270","jp_tok-p_htl_a_low2_270"
"trial","survey","58","873841","0.0-2.0-56.0","604a10844bde8be09a850300","626166b218b78fee4e9d8d4c","626177a9e2fe1300cce46255","10","12628","","{""P0_Q0"":null,""ambiguous"":3,""objects"":2,""invisible"":4,""chaos"":3}","","","","","","","","","","","","","","","","","[]","Shinshuku Elementary School","ChIJM1VHO19gGGARYHbYkz0tS8E","35.5572368","139.7158925","JP","TOK","PER","SCH","1-chōme-5-1 Kamatahonchō, Ota City, Tokyo 144-0053, Japan","jp_tok-p_sch_a_2","180","jp_tok-p_sch_a_2_180"
"trial","survey","59","882364","0.0-2.0-57.0","604a10844bde8be09a850300","626166b218b78fee4e9d8d4c","626177a9e2fe1300cce46255","10","8510","","{""P0_Q0"":null,""ambiguous"":1,""objects"":1,""invisible"":2,""chaos"":1}","","","","","","","","","","","","","","","","","[]","HOTEL K5","DSTYOKHO","35.68271","139.77801","JP","TOK","CTR","HTL","3-5 NIHOMBASHI KABUTOCHO, TOKYO 103-0026","jp_tok-c_htl_a_mid1","270","jp_tok-c_htl_a_mid1_270"
"trial","survey","60","903530","0.0-2.0-58.0","604a10844bde8be09a850300","626166b218b78fee4e9d8d4c","626177a9e2fe1300cce46255","10","21151","","{""P0_Q0"":null,""ambiguous"":1,""objects"":2,""invisible"":3,""chaos"":3}","","","","","","","","","","","","","","","","","[]","Chelsea House Victorian Inn","ChIJ1ap5tQHMPIgRXxz9M_-mKZc","42.3181667","-84.0196694","US","CHL","CHL","HTL","118 E Middle St, Chelsea, MI 48118, USA","us_chl_htl_a_high1","0","us_chl_htl_a_high1_0"
"trial","survey","61","918670","0.0-2.0-59.0","604a10844bde8be09a850300","626166b218b78fee4e9d8d4c","626177a9e2fe1300cce46255","10","15129","","{""P0_Q0"":null,""ambiguous"":1,""objects"":2,""invisible"":1,""chaos"":2}","","","","","","","","","","","","","","","","","[]","Nearby location of Kakezuka Elementary School (jp_tok-c_sch_a_4)","ChIJZ3Y9uRWLGGAR3VkcUPtDdr0","35.6430912","139.71302","JP","TOK","CTR","SCH","4 Chome-20 Ebisu, Shibuya City, Tokyo 150-0013, Japan","jp_tok-c_sch_b_4","180","jp_tok-c_sch_b_4_180"
"trial","survey","62","934537","0.0-2.0-60.0","604a10844bde8be09a850300","626166b218b78fee4e9d8d4c","626177a9e2fe1300cce46255","10","15853","","{""P0_Q0"":null,""ambiguous"":3,""objects"":3,""invisible"":2,""chaos"":2}","","","","","","","","","","","","","","","","","[]","Nearby location of The Hoxton Williamsburg (us_nyc-p_htl_a_high2)","ChIJyY4VgmdZwokRJvRjPQxu5_w","40.7197786","-73.9599015","US","NYC","PER","HTL","131 Wythe Ave, Brooklyn, NY 11249, USA","us_nyc-p_htl_b_high2","270","us_nyc-p_htl_b_high2_270"
"trial","survey","63","955008","0.0-2.0-61.0","604a10844bde8be09a850300","626166b218b78fee4e9d8d4c","626177a9e2fe1300cce46255","10","20458","","{""P0_Q0"":null,""ambiguous"":3,""objects"":2,""invisible"":3,""chaos"":2}","","","","","","","","","","","","","","","","","[]","Bell Tower Hotel","SCARB398","42.27929","-83.73974","US","ARB","ARB","HTL","300 S THAYER ST, ANN ARBOR, MI 48104","us_arb_htl_a_high2","0","us_arb_htl_a_high2_0"
"trial","survey","64","977738","0.0-2.0-62.0","604a10844bde8be09a850300","626166b218b78fee4e9d8d4c","626177a9e2fe1300cce46255","10","22720","","{""P0_Q0"":null,""ambiguous"":2,""objects"":2,""invisible"":2,""chaos"":2}","","","","","","","","","","","","","","","","","[]","Nearby location of Bronx Charter School for Excellence 3 (us_nyc-p_sch_a_6)","ChIJe_mvGSPzwokRCYjGIqRdQGo","40.8872687","-73.8619035","US","NYC","PER","SCH","672 E 224th St, Bronx, NY 10466, USA","us_nyc-p_sch_b_6","0","us_nyc-p_sch_b_6_0"
"trial","survey","65","994213","0.0-2.0-63.0","604a10844bde8be09a850300","626166b218b78fee4e9d8d4c","626177a9e2fe1300cce46255","10","16451","","{""P0_Q0"":null,""ambiguous"":4,""objects"":2,""invisible"":4,""chaos"":2}","","","","","","","","","","","","","","","","","[]","Comfort Inn","ChIJ-4dsD7jOPIgR_03DSz1SKuQ","42.2976226","-84.0277709","US","CHL","CHL","HTL","1645 Commerce Park Dr, Chelsea, MI 48118, USA","us_chl_htl_a_low1","90","us_chl_htl_a_low1_90"
"trial","survey","66","1017931","0.0-2.0-64.0","604a10844bde8be09a850300","626166b218b78fee4e9d8d4c","626177a9e2fe1300cce46255","10","23711","","{""P0_Q0"":null,""ambiguous"":3,""objects"":1,""invisible"":4,""chaos"":2}","","","","","","","","","","","","","","","","","[]","豊島区立朝日小学校 ひいらぎ学級","ChIJtauqIoKNGGARrjSxFT4oZHo","35.741097","139.73295","JP","TOK","CTR","SCH","Japan, 〒170-0002 Tokyo, Toshima City, Sugamo, 5-chōme−33−１ 豊島区立朝日小学校","jp_tok-c_sch_a_2","90","jp_tok-c_sch_a_2_90"
"trial","survey","67","1037019","0.0-2.0-65.0","604a10844bde8be09a850300","626166b218b78fee4e9d8d4c","626177a9e2fe1300cce46255","10","19071","","{""P0_Q0"":null,""ambiguous"":5,""objects"":4,""invisible"":5,""chaos"":5}","","","","","","","","","","","","","","","","","[]","豊島区立朝日小学校 ひいらぎ学級","ChIJtauqIoKNGGARrjSxFT4oZHo","35.741097","139.73295","JP","TOK","CTR","SCH","Japan, 〒170-0002 Tokyo, Toshima City, Sugamo, 5-chōme−33−１ 豊島区立朝日小学校","jp_tok-c_sch_a_2","0","jp_tok-c_sch_a_2_0"
"trial","survey","68","1052919","0.0-2.0-66.0","604a10844bde8be09a850300","626166b218b78fee4e9d8d4c","626177a9e2fe1300cce46255","10","15886","","{""P0_Q0"":null,""ambiguous"":1,""objects"":2,""invisible"":2,""chaos"":1}","","","","","","","","","","","","","","","","","[]","The Hoxton Williamsburg","WVNYC801","40.7207","-73.95876","US","NYC","PER","HTL","97 WYTHE AVENUE, NEW YORK, NY 11249","us_nyc-p_htl_a_high2","0","us_nyc-p_htl_a_high2_0"
"trial","survey","69","1069385","0.0-2.0-67.0","604a10844bde8be09a850300","626166b218b78fee4e9d8d4c","626177a9e2fe1300cce46255","10","16455","","{""P0_Q0"":null,""ambiguous"":5,""objects"":4,""invisible"":4,""chaos"":5}","","","","","","","","","","","","","","","","","[]","Ryōgoku Post Office","ChIJ-792HbOOGGARe1sZkDax64U","35.6954419","139.7857167","JP","TOK","CTR","POS","2-chōme-27-12 Higashinihonbashi, Chuo City, Tokyo 103-0004, Japan","jp_tok-c_pos_a_5","0","jp_tok-c_pos_a_5_0"
"demographics","survey-html-form","70","1081518","0.0-2.0-68.0","604a10844bde8be09a850300","626166b218b78fee4e9d8d4c","626177a9e2fe1300cce46255","10","12131","","{""age"":""25"",""gender"":""male"",""gender-self-describe"":"""",""zipcode"":""63052""}","","","","","","","","","","","","","","","","","","","","","","","","","","","","",""
"demographics","survey","71","1085641","0.0-2.0-69.0","604a10844bde8be09a850300","626166b218b78fee4e9d8d4c","626177a9e2fe1300cce46255","10","4099","","{""P0_Q0"":null,""outsideUS"":""No"",""outsideUS_years"":""""}","","","","","","","","","","","","","","","","","[]","","","","","","","","","","","",""
"end-survey","survey-text","72","1094973","0.0-2.0-70.0","604a10844bde8be09a850300","626166b218b78fee4e9d8d4c","626177a9e2fe1300cce46255","10","9328","","{""Q0"":""""}","","","","","","","","","","","","","","","","","","","","","","","","","","","","",""
