"task","trial_type","trial_index","time_elapsed","internal_node_id","subject_id","study_id","session_id","group","rt","stimulus","response","width","height","webaudio","browser","browser_version","mobile","os","fullscreen","vsync_rate","webcam","microphone","success","timeout","failed_images","failed_audio","failed_video","accuracy","name","place_id","lat","lng","culture","loc1","loc2","loct","address","loc_id_prev","angle","loc_id"
"pavlovia-init","pavlovia","0","1098","0.0-0.0","5e9f324c7a996d0aa2ff651e","626166b218b78fee4e9d8d4c","62618a7ea0e3ebddc9e8e8b0","12","","","","","","","","","","","","","","","","","","","","","","","","","","","","","","","",""
"consent","html-button-response","1","130441","0.0-1.0","5e9f324c7a996d0aa2ff651e","626166b218b78fee4e9d8d4c","62618a7ea0e3ebddc9e8e8b0","12","129337","
        <div style=""font-size: 80%; max-width:700px"">
            <h2>Informed Consent</h2><br>
        
            <div style=""text-align: left"">
            <h3>Streetscape Perceptions</h3>
            <b>HUM00189138</b>
            <br><hr>
        
            <h4>DESCRIPTION</h4>
            <p>
                In this study, you will view Google Street View images. You will then answer questions about your impressions of the streetscapes presented in those images.
            </p><br>
        
            <h4>TIME INVOLVEMENT</h4>
            <p>Your participation will take approximately 30 minutes.</p><br>
        
            <h4>RISKS AND BENEFITS</h4>
            <p>
                The risks associated with this study are minimal. The benefits which may reasonably be expected to result from this study are none.  We cannot and do not guarantee or promise that you will receive any benefits from this study. 
            </p><br>
        
            <h4>PAYMENTS</h4>
            <p>You will be paid <b>$5.00</b> for your participation.</p><br>
        
            <h4>SUBJECT'S RIGHTS</h4>
            <p>
                If you have read this form and have decided to participate in this project, please understand your participation is voluntary and you have the right to withdraw your consent or discontinue participation at any time without penalty or loss of benefits to which you are otherwise entitled.  The alternative is not to participate.  You have the right to refuse to answer particular questions.  
            </p>
        
            <p>
                Your individual privacy will be maintained in all published and written data resulting from the study. Your responses will be kept confidential: you are given a participant code, and no one, not even the research team, can match that code with your identity. Your collected information may also be shared with other researchers as part of our dataset.
            </p><br>
        
            <h4>CONTACT INFORMATION</h4>
            <p>
                Questions: If you have any questions, concerns or complaints about this research, its procedures, risks and benefits, contact the Protocol Director, Nicholas Camp, npcamp@umich.edu, (443) 851-6783.
            </p>
        
            <p>
                If you have questions about your rights as a research participant, or wish to obtain information, ask questions or discuss any concerns about this study with someone other than the researcher(s), please contact the following:
                <br><br>
        
                University of Michigan<br>
                Health Sciences and Behavioral Sciences Institutional Review Board
                (IRB-HSBS)<br>
                2800 Plymouth Road <br>
                Building 520, Room 1169 <br>
                Ann Arbor, MI 48109-2800 <br>
                Telephone: 734-936-0933 or toll free (866) 936-0933 <br>
                Fax: 734-936-1852 <br />
                E-mail: irbhsbs@umich.edu <br>
            </p>
        
            <p>
                You can also contact the University of Michigan Compliance Hotline at 1-866-990-0111. You may also print this consent form to keep.
            </p>
            <br>
        
            <div class=""alert alert-warning""><b>
                Do you consent to participate in this study? If you consent to participate in this study, please click “Accept and continue.”
            </b></div>
            </div>
        </div>
    ","1","","","","","","","","","","","","","","","","","","","","","","","","","","","","",""
"browser-check","browser-check","2","131418","0.0-2.0-0.0","5e9f324c7a996d0aa2ff651e","626166b218b78fee4e9d8d4c","62618a7ea0e3ebddc9e8e8b0","12","","","","1260","973","true","chrome","100.0.4896","false","Windows 10","true","61.63","true","true","","","","","","","","","","","","","","","","","",""
"","preload","3","132637","0.0-2.0-1.0","5e9f324c7a996d0aa2ff651e","626166b218b78fee4e9d8d4c","62618a7ea0e3ebddc9e8e8b0","12","","","","","","","","","","","","","","","true","false","[]","[]","[]","","","","","","","","","","","","",""
"instructions","html-button-response","4","141076","0.0-2.0-2.0","5e9f324c7a996d0aa2ff651e","626166b218b78fee4e9d8d4c","62618a7ea0e3ebddc9e8e8b0","12","8439","
        <div class=""text-container"">
            <h1>Welcome to the study!</h1>
            
            <div class=""text-left"">
                <p>
                    In this study, we are interested in how people think about different Google Street View images. Google Street View takes pictures of streets used for Google Earth and Google Maps. You’ll see Google Street View images of different places and answer some questions about each one.
                </p>
            </div>
            
            <img src='
            https://maps.googleapis.com/maps/api/streetview?size=640x320
            &location=37.783631,-122.432766
            &heading=80
            &pitch=2
            &fov=100
            &radius=150
            &key=AIzaSyC2OxRDg6qlzZDj7j0UAD2XyE0qWokLvvs
            &source=outdoor'>
        
            <br>
        <br>
    ","0","","","","","","","","","","","","","","","","","","","","","","","","","","","","",""
"instructions","html-button-response","5","154374","0.0-2.0-3.0","5e9f324c7a996d0aa2ff651e","626166b218b78fee4e9d8d4c","62618a7ea0e3ebddc9e8e8b0","12","12996","
        <style>
            img.small {
            max-width: 100px;
            }
            li {
            text-indent: 40px;
            }
        </style>

        <div class=""text-container text-left"">
            <p>For each picture, we’d like your impressions of the scene:</p>
            
            <hr>
                Are there <b>clear, distinct boundaries</b> between objects in the scene, or are the <b>boundaries ambiguous or unclear</b>?
                
                <li>clear, distinct boundaries: <img class=""small"" src=""assets/img/ambiguous-low.png""></li>
                <li>ambiguous or unclear boundaries: <img class=""small"" src=""assets/img/ambiguous-high.png""></li>
            <hr>
            <br>
                Are there <b>only a few different objects</b> in the scene, or is there <b>a large number</b>?
            <br><br>
            <hr>
                Are only <b>a few parts</b> of the scene <b>invisible or obscured</b>, or are <b>many parts invisible or obscured</b>?
                
                <li>a few parts invisible or obscured: <img class=""small"" src=""assets/img/invisible-low.png""></li>
                <li>many parts invisible or obscured: <img class=""small"" src=""assets/img/invisible-high.png""></li>
            <hr>
            <br>
                Does the scene look <b>organized</b> or <b>chaotic</b> to you?
            <br><br>
            <hr>
            
            <p>
                There are no right or wrong answers: we are interested in <b>your</b> impression. Note that some images might have individual buildings or faces blurred for privacy. Please ignore these when making your judgments.
            </p>
        </div>
        <br>
    ","0","","","","","","","","","","","","","","","","","","","","","","","","","","","","",""
"instructions","html-button-response","6","160166","0.0-2.0-4.0","5e9f324c7a996d0aa2ff651e","626166b218b78fee4e9d8d4c","62618a7ea0e3ebddc9e8e8b0","12","5791","
        <div class=""text-container text-left"">
            <p>Please make sure you are doing this study in an area where you can focus and complete the survey in one sitting.</p>

            <p>Don’t spend too much time on any one picture, and, again go with your gut impression!</p>
            
            <p>The study should take about 30 minutes. We’ll let you know when you’re halfway through.</p>
        </div>
            
        <h3>Ready? Click next to get started!</h3>
        <br>
    ","0","","","","","","","","","","","","","","","","","","","","","","","","","","","","",""
"trial","survey","7","190679","0.0-2.0-5.0","5e9f324c7a996d0aa2ff651e","626166b218b78fee4e9d8d4c","62618a7ea0e3ebddc9e8e8b0","12","30468","","{""P0_Q0"":null,""ambiguous"":4,""objects"":3,""invisible"":4,""chaos"":4}","","","","","","","","","","","","","","","","","[]","The Ritz-Carlton Tokyo","RZTYORZZ","35.66622","139.7315","JP","TOK","CTR","HTL","TOKYO MIDTOWN 9-7-1 AKASAKA MI, TOKYO 107-6245","jp_tok-c_htl_a_ultra2","90","jp_tok-c_htl_a_ultra2_90"
"trial","survey","8","212685","0.0-2.0-6.0","5e9f324c7a996d0aa2ff651e","626166b218b78fee4e9d8d4c","62618a7ea0e3ebddc9e8e8b0","12","21996","","{""P0_Q0"":null,""ambiguous"":1,""objects"":1,""invisible"":2,""chaos"":1}","","","","","","","","","","","","","","","","","[]","Nearby location of Katsushika Higashishinkoiwa Post Office (jp_tok-p_pos_a_6)","ChIJa0TdeweGGGAR0TN6A1BsN_Y","35.7240323","139.8620652","JP","TOK","PER","POS","3-chōme-15-6 Higashishinkoiwa, Katsushika City, Tokyo 124-0023, Japan","jp_tok-p_pos_b_6","90","jp_tok-p_pos_b_6_90"
"trial","survey","9","234673","0.0-2.0-7.0","5e9f324c7a996d0aa2ff651e","626166b218b78fee4e9d8d4c","62618a7ea0e3ebddc9e8e8b0","12","21977","","{""P0_Q0"":null,""ambiguous"":2,""objects"":2,""invisible"":1,""chaos"":2}","","","","","","","","","","","","","","","","","[]","Nearby location of ORCHARD STREET HOTEL (us_nyc-c_htl_a_low1)","ChIJ8TquxYZZwokRPgCEBRlBnXM","40.7198222","-73.9898421","US","NYC","CTR","HTL","130 Allen St, New York, NY 10002, USA","us_nyc-c_htl_b_low1","180","us_nyc-c_htl_b_low1_180"
"trial","survey","10","254433","0.0-2.0-8.0","5e9f324c7a996d0aa2ff651e","626166b218b78fee4e9d8d4c","62618a7ea0e3ebddc9e8e8b0","12","19746","","{""P0_Q0"":null,""ambiguous"":1,""objects"":2,""invisible"":2,""chaos"":2}","","","","","","","","","","","","","","","","","[]","Nearby location of Nakano Sun Cuore Post Office (jp_tok-p_pos_a_2)","ChIJ_6f_XpryGGARylU0pXEPcbM","35.7102066","139.6632353","JP","TOK","PER","POS","2-chōme-30-7 Arai, Nakano City, Tokyo 165-0026, Japan","jp_tok-p_pos_b_2","0","jp_tok-p_pos_b_2_0"
"trial","survey","11","274052","0.0-2.0-9.0","5e9f324c7a996d0aa2ff651e","626166b218b78fee4e9d8d4c","62618a7ea0e3ebddc9e8e8b0","12","19609","","{""P0_Q0"":null,""ambiguous"":1,""objects"":1,""invisible"":1,""chaos"":1}","","","","","","","","","","","","","","","","","[]","Aijitsu Elementary School","ChIJzR_MUXS7JhURN_tqq9sSdCs","35.699762","139.7340245","JP","TOK","CTR","SCH","26 Kitamachi, Shinjuku City, Tokyo 162-0834, Japan","jp_tok-c_sch_a_5","270","jp_tok-c_sch_a_5_270"
"trial","survey","12","282168","0.0-2.0-10.0","5e9f324c7a996d0aa2ff651e","626166b218b78fee4e9d8d4c","62618a7ea0e3ebddc9e8e8b0","12","8106","","{""P0_Q0"":null,""ambiguous"":1,""objects"":1,""invisible"":2,""chaos"":1}","","","","","","","","","","","","","","","","","[]","Ann Arbor Hills Child Development Center","ChIJe87tMeKuPIgRVFWuWyeOdBY","42.2629596","-83.7044284","US","ARB","ARB","SCH","2775 Bedford Rd, Ann Arbor, MI 48104, USA","us_arb_sch_a_1","90","us_arb_sch_a_1_90"
"trial","survey","13","294843","0.0-2.0-11.0","5e9f324c7a996d0aa2ff651e","626166b218b78fee4e9d8d4c","62618a7ea0e3ebddc9e8e8b0","12","12666","","{""P0_Q0"":null,""ambiguous"":3,""objects"":3,""invisible"":2,""chaos"":4}","","","","","","","","","","","","","","","","","[]","INTERCONTINENTAL THE STRINGS","ICTYOSTR","35.62791","139.74075","JP","TOK","CTR","HTL","26 32 F SHINAGAWA EAST ONE TWR 2 16 1 KONAN, TOKYO 108 8282","jp_tok-c_htl_a_mid2","180","jp_tok-c_htl_a_mid2_180"
"trial","survey","14","309505","0.0-2.0-12.0","5e9f324c7a996d0aa2ff651e","626166b218b78fee4e9d8d4c","62618a7ea0e3ebddc9e8e8b0","12","14656","","{""P0_Q0"":null,""ambiguous"":1,""objects"":1,""invisible"":2,""chaos"":2}","","","","","","","","","","","","","","","","","[]","Nearby location of Daiwa Roynet Hotel Tokyo-Osaki (jp_tok-p_htl_a_low2)","ChIJw8m7kPSKGGAREUfz_puYZs4","35.6168084","139.7277241","JP","TOK","PER","HTL","2-chōme-9-4 Ōsaki, Shinagawa City, Tokyo 141-0032, Japan","jp_tok-p_htl_b_low2","270","jp_tok-p_htl_b_low2_270"
"trial","survey","15","326469","0.0-2.0-13.0","5e9f324c7a996d0aa2ff651e","626166b218b78fee4e9d8d4c","62618a7ea0e3ebddc9e8e8b0","12","16956","","{""P0_Q0"":null,""ambiguous"":3,""objects"":4,""invisible"":3,""chaos"":4}","","","","","","","","","","","","","","","","","[]","PS 146 Anna M. Short School","ChIJtwKR6hz2wokRPs0Ro5kWXS0","40.7897123","-73.9393805","US","NYC","CTR","SCH","421 E 106th St #4896, New York, NY 10029, USA","us_nyc-c_sch_a_5","180","us_nyc-c_sch_a_5_180"
"trial","survey","16","345427","0.0-2.0-14.0","5e9f324c7a996d0aa2ff651e","626166b218b78fee4e9d8d4c","62618a7ea0e3ebddc9e8e8b0","12","18949","","{""P0_Q0"":null,""ambiguous"":3,""objects"":3,""invisible"":3,""chaos"":4}","","","","","","","","","","","","","","","","","[]","Nearby location of The Hoxton Williamsburg (us_nyc-p_htl_a_high2)","ChIJyY4VgmdZwokRJvRjPQxu5_w","40.7197786","-73.9599015","US","NYC","PER","HTL","131 Wythe Ave, Brooklyn, NY 11249, USA","us_nyc-p_htl_b_high2","0","us_nyc-p_htl_b_high2_0"
"trial","survey","17","363349","0.0-2.0-15.0","5e9f324c7a996d0aa2ff651e","626166b218b78fee4e9d8d4c","62618a7ea0e3ebddc9e8e8b0","12","17913","","{""P0_Q0"":null,""ambiguous"":1,""objects"":2,""invisible"":1,""chaos"":1}","","","","","","","","","","","","","","","","","[]","Nearby location of Jonan Daini Elementary School (jp_tok-p_sch_a_5)","ChIJ2To8y2-KGGARuI3U_BCg3Sg","35.614051","139.744792","JP","TOK","PER","SCH","2-chōme-15-6 Minamishinagawa, Shinagawa City, Tokyo 140-0004, Japan","jp_tok-p_sch_b_5","270","jp_tok-p_sch_b_5_270"
"trial","survey","18","373790","0.0-2.0-16.0","5e9f324c7a996d0aa2ff651e","626166b218b78fee4e9d8d4c","62618a7ea0e3ebddc9e8e8b0","12","10432","","{""P0_Q0"":null,""ambiguous"":1,""objects"":1,""invisible"":1,""chaos"":2}","","","","","","","","","","","","","","","","","[]","Jittered SV for Horace Mann Barnard Elementary (us_nyc-p_sch_a_1)","ChIJXWJvya_zwokRupFUpNOXhkc","40.8931192","-73.899225","US","NYC","PER","SCH","231 W 246th St, Bronx, NY 10471, USA","us_nyc-p_sch_a_1","180","us_nyc-p_sch_a_1_180"
"trial","survey","19","379821","0.0-2.0-17.0","5e9f324c7a996d0aa2ff651e","626166b218b78fee4e9d8d4c","62618a7ea0e3ebddc9e8e8b0","12","6024","","{""P0_Q0"":null,""ambiguous"":1,""objects"":1,""invisible"":1,""chaos"":1}","","","","","","","","","","","","","","","","","[]","Comfort Inn","ChIJ-4dsD7jOPIgR_03DSz1SKuQ","42.2976226","-84.0277709","US","CHL","CHL","HTL","1645 Commerce Park Dr, Chelsea, MI 48118, USA","us_chl_htl_a_low1","270","us_chl_htl_a_low1_270"
"trial","survey","20","397024","0.0-2.0-18.0","5e9f324c7a996d0aa2ff651e","626166b218b78fee4e9d8d4c","62618a7ea0e3ebddc9e8e8b0","12","17196","","{""P0_Q0"":null,""ambiguous"":2,""objects"":1,""invisible"":2,""chaos"":2}","","","","","","","","","","","","","","","","","[]","Nearby location of Katsushika City Iizuka Elementary School (jp_tok-p_sch_a_3)","ChIJ1_4-r2CFGGARraiLOcCqmco","35.7780152","139.8593261","JP","TOK","PER","SCH","Japan, 〒125-0035 Tokyo, Katsushika City, Minamimizumoto, 2-chōme−28−１６ セブンツークラッシックマンション","jp_tok-p_sch_b_3","270","jp_tok-p_sch_b_3_270"
"trial","survey","21","414221","0.0-2.0-19.0","5e9f324c7a996d0aa2ff651e","626166b218b78fee4e9d8d4c","62618a7ea0e3ebddc9e8e8b0","12","17190","","{""P0_Q0"":null,""ambiguous"":2,""objects"":3,""invisible"":2,""chaos"":2}","","","","","","","","","","","","","","","","","[]","Nearby location of P.S. 020 John Bowne (us_nyc-p_sch_a_5)","ChIJ-7aNoRZgwokRFC2hF6Idg2E","40.7572054","-73.8229217","US","NYC","PER","SCH","14231 Franklin Ave, Queens, NY 11355, USA","us_nyc-p_sch_b_5","270","us_nyc-p_sch_b_5_270"
"trial","survey","22","422423","0.0-2.0-20.0","5e9f324c7a996d0aa2ff651e","626166b218b78fee4e9d8d4c","62618a7ea0e3ebddc9e8e8b0","12","8193","","{""P0_Q0"":null,""ambiguous"":1,""objects"":1,""invisible"":2,""chaos"":1}","","","","","","","","","","","","","","","","","[]","Mukaihara Elementary School","ChIJr51ciUjtGGARi9CcLnWMRwg","35.7416333","139.6818636","JP","TOK","PER","SCH","2-chōme-34-1 Mukaihara, Itabashi City, Tokyo 173-0036, Japan","jp_tok-p_sch_a_4","0","jp_tok-p_sch_a_4_0"
"trial","survey","23","430606","0.0-2.0-21.0","5e9f324c7a996d0aa2ff651e","626166b218b78fee4e9d8d4c","62618a7ea0e3ebddc9e8e8b0","12","8177","","{""P0_Q0"":null,""ambiguous"":1,""objects"":1,""invisible"":1,""chaos"":1}","","","","","","","","","","","","","","","","","[]","Nearby location of Nagahama Shiritsu Torahime Elementary School (jp_tor_sch_a_1)","ChIJfT7yNZ8oAmAROTHUpaMv9Ak","35.419735","136.265362","JP","TOR","TOR","SCH","2410 Miyabechō, Nagahama, Shiga 529-0112, Japan","jp_tor_sch_b_1","270","jp_tor_sch_b_1_270"
"trial","survey","24","447781","0.0-2.0-22.0","5e9f324c7a996d0aa2ff651e","626166b218b78fee4e9d8d4c","62618a7ea0e3ebddc9e8e8b0","12","17168","","{""P0_Q0"":null,""ambiguous"":3,""objects"":1,""invisible"":2,""chaos"":1}","","","","","","","","","","","","","","","","","[]","Nearby location of Ann Arbor Christian School (us_arb_sch_a_2)","ChIJx979uW-tPIgRK2esjhwtDDE","42.352939","-83.7497999","US","ARB","ARB","SCH","5460 Whitmore Lake Rd, Ann Arbor, MI 48105, USA","us_arb_sch_b_2","0","us_arb_sch_b_2_0"
"trial","survey","25","468658","0.0-2.0-23.0","5e9f324c7a996d0aa2ff651e","626166b218b78fee4e9d8d4c","62618a7ea0e3ebddc9e8e8b0","12","20868","","{""P0_Q0"":null,""ambiguous"":2,""objects"":3,""invisible"":3,""chaos"":3}","","","","","","","","","","","","","","","","","[]","Nearby location of United States Postal Service (us_nyc-c_pos_a_6)","ChIJ63f0hz9ZwokRTruThu3Ng6s","40.7682731","-73.9822808","US","NYC","CTR","POS","15 Columbus Cir, New York, NY 10019, USA","us_nyc-c_pos_b_6","0","us_nyc-c_pos_b_6_0"
"trial","survey","26","478813","0.0-2.0-24.0","5e9f324c7a996d0aa2ff651e","626166b218b78fee4e9d8d4c","62618a7ea0e3ebddc9e8e8b0","12","10147","","{""P0_Q0"":null,""ambiguous"":2,""objects"":1,""invisible"":2,""chaos"":2}","","","","","","","","","","","","","","","","","[]","United States Postal Service","ChIJ1WavSUSuPIgRi9j9aKANWYg","42.2745042","-83.7339227","US","ARB","ARB","POS","1214 S University Ave Ste S104, Ann Arbor, MI 48104, USA","us_arb_pos_a_4","0","us_arb_pos_a_4_0"
"trial","survey","27","491153","0.0-2.0-25.0","5e9f324c7a996d0aa2ff651e","626166b218b78fee4e9d8d4c","62618a7ea0e3ebddc9e8e8b0","12","12332","","{""P0_Q0"":null,""ambiguous"":1,""objects"":1,""invisible"":2,""chaos"":1}","","","","","","","","","","","","","","","","","[]","Nearby location of Nakano Sun Cuore Post Office (jp_tok-p_pos_a_2)","ChIJ_6f_XpryGGARylU0pXEPcbM","35.7102066","139.6632353","JP","TOK","PER","POS","2-chōme-30-7 Arai, Nakano City, Tokyo 165-0026, Japan","jp_tok-p_pos_b_2","90","jp_tok-p_pos_b_2_90"
"trial","survey","28","506757","0.0-2.0-26.0","5e9f324c7a996d0aa2ff651e","626166b218b78fee4e9d8d4c","62618a7ea0e3ebddc9e8e8b0","12","15596","","{""P0_Q0"":null,""ambiguous"":4,""objects"":4,""invisible"":3,""chaos"":4}","","","","","","","","","","","","","","","","","[]","Nakano Sun Cuore Post Office","ChIJcTw2u5DyGGAReXXGTvjxlhw","35.7089211","139.6647475","JP","TOK","PER","POS","Japan, 〒164-0001 Tokyo, Nakano City, Nakano, 4-chōme−3−１ 地下１階","jp_tok-p_pos_a_2","180","jp_tok-p_pos_a_2_180"
"trial","survey","29","529744","0.0-2.0-27.0","5e9f324c7a996d0aa2ff651e","626166b218b78fee4e9d8d4c","62618a7ea0e3ebddc9e8e8b0","12","22980","","{""P0_Q0"":null,""ambiguous"":3,""objects"":5,""invisible"":3,""chaos"":4}","","","","","","","","","","","","","","","","","[]","Nearby location of BASIS Independent Manhattan (us_nyc-c_sch_a_1)","ChIJ5ZYR6Sb2wokRg8Qj29B4aF4","40.7956348","-73.9670782","US","NYC","CTR","SCH","120 W 100th St, New York, NY 10025, USA","us_nyc-c_sch_b_1","270","us_nyc-c_sch_b_1_270"
"trial","survey","30","543402","0.0-2.0-28.0","5e9f324c7a996d0aa2ff651e","626166b218b78fee4e9d8d4c","62618a7ea0e3ebddc9e8e8b0","12","13652","","{""P0_Q0"":null,""ambiguous"":1,""objects"":2,""invisible"":2,""chaos"":2}","","","","","","","","","","","","","","","","","[]","Bell Tower Hotel","SCARB398","42.27929","-83.73974","US","ARB","ARB","HTL","300 S THAYER ST, ANN ARBOR, MI 48104","us_arb_htl_a_high2","180","us_arb_htl_a_high2_180"
"trial","survey","31","556211","0.0-2.0-29.0","5e9f324c7a996d0aa2ff651e","626166b218b78fee4e9d8d4c","62618a7ea0e3ebddc9e8e8b0","12","12802","","{""P0_Q0"":null,""ambiguous"":2,""objects"":3,""invisible"":3,""chaos"":3}","","","","","","","","","","","","","","","","","[]","Nearby location of Hotel Route-Inn Nagahama Inter (us_chl_htl_a_low1)","ChIJ64OtwtAuAmARNDquDmxOjLw","35.3955527","136.2935564","JP","TOR","TOR","HTL","66 Yamashinachō, Nagahama, Shiga 526-0847, Japan","jp_tor_htl_b_low1","270","jp_tor_htl_b_low1_270"
"trial","survey","32","599356","0.0-2.0-30.0","5e9f324c7a996d0aa2ff651e","626166b218b78fee4e9d8d4c","62618a7ea0e3ebddc9e8e8b0","12","43137","","{""P0_Q0"":null,""ambiguous"":2,""objects"":3,""invisible"":2,""chaos"":3}","","","","","","","","","","","","","","","","","[]","Rakuten STAY HOUSE×WILLSTYLE 八幡堀","ChIJ29I3jA95AWAR_5xuRG3klyw","35.1418554","136.0963056","JP","HIK","HIK","HTL","580-6 Tagachō, Omihachiman, Shiga 523-0821, Japan","jp_hik_htl_a_high1","90","jp_hik_htl_a_high1_90"
"trial","survey","33","620583","0.0-2.0-31.0","5e9f324c7a996d0aa2ff651e","626166b218b78fee4e9d8d4c","62618a7ea0e3ebddc9e8e8b0","12","21217","","{""P0_Q0"":null,""ambiguous"":1,""objects"":3,""invisible"":2,""chaos"":3}","","","","","","","","","","","","","","","","","[]","台東小学校跡","ChIJPzL6D6mPGGAROc_ZDczQMBw","35.7231123","139.7860147","JP","TOK","CTR","SCH","3-chōme-1-30 Shitaya, Taito City, Tokyo 110-0004, Japan","jp_tok-c_sch_a_1","90","jp_tok-c_sch_a_1_90"
"trial","survey","34","638778","0.0-2.0-32.0","5e9f324c7a996d0aa2ff651e","626166b218b78fee4e9d8d4c","62618a7ea0e3ebddc9e8e8b0","12","18187","","{""P0_Q0"":null,""ambiguous"":3,""objects"":2,""invisible"":4,""chaos"":3}","","","","","","","","","","","","","","","","","[]","Nearby location of Kasai Station Post Office (jp_hik_pos_a_1)","ChIJJ6kVju2HGGAR5jpVAdpfozs","35.6644139","139.8716517","JP","HIK","HIK","POS","3-chōme-33-14 Nakakasai, Edogawa City, Tokyo 134-0083, Japan","jp_hik_pos_b_1","270","jp_hik_pos_b_1_270"
"trial","survey","35","649694","0.0-2.0-33.0","5e9f324c7a996d0aa2ff651e","626166b218b78fee4e9d8d4c","62618a7ea0e3ebddc9e8e8b0","12","10907","","{""P0_Q0"":null,""ambiguous"":1,""objects"":4,""invisible"":2,""chaos"":2}","","","","","","","","","","","","","","","","","[]","Mitchell Elementary School","ChIJQYKjOkevPIgRNBcgyKyYsfs","42.2369664","-83.6929474","US","ARB","ARB","SCH","3550 Pittsview Dr, Ann Arbor, MI 48108, USA","us_arb_sch_a_4","0","us_arb_sch_a_4_0"
"trial","survey","36","666055","0.0-2.0-34.0","5e9f324c7a996d0aa2ff651e","626166b218b78fee4e9d8d4c","62618a7ea0e3ebddc9e8e8b0","12","16354","","{""P0_Q0"":null,""ambiguous"":2,""objects"":1,""invisible"":1,""chaos"":2}","","","","","","","","","","","","","","","","","[]","Yonehara Shiritsu Yonehara Elementary School","ChIJaQYSoWQrAmARNFmF-erxUY4","35.31424","136.280753","JP","HIK","HIK","SCH","307 Irie, Maibara, Shiga 521-0003, Japan","jp_hik_sch_a_1","180","jp_hik_sch_a_1_180"
"half-way","html-button-response","37","679187","0.0-2.0-35.0","5e9f324c7a996d0aa2ff651e","626166b218b78fee4e9d8d4c","62618a7ea0e3ebddc9e8e8b0","12","13129","
            <h3>You are now half way through the study.</h3>
            <p>Please take a quick, 15-second break before you continue.</p>
            <img src='assets/img/countdown-15.gif'>
            <p>The study will automatically advance forward after the countdown is complete. However, you may click ""Next"" to advance forward now if you wish.</p>
        ","0","","","","","","","","","","","","","","","","","","","","","","","","","","","","",""
"attention-check","survey","38","686999","0.0-2.0-36.0","5e9f324c7a996d0aa2ff651e","626166b218b78fee4e9d8d4c","62618a7ea0e3ebddc9e8e8b0","12","7804","","{""P0_Q0"":null,""ambiguous"":null,""objects"":null,""invisible"":null,""chaos"":null}","","","","","","","","","","","","","","","","","[]","","","","","","","","","","","",""
"trial","survey","39","702134","0.0-2.0-37.0","5e9f324c7a996d0aa2ff651e","626166b218b78fee4e9d8d4c","62618a7ea0e3ebddc9e8e8b0","12","15129","","{""P0_Q0"":null,""ambiguous"":2,""objects"":2,""invisible"":3,""chaos"":2}","","","","","","","","","","","","","","","","","[]","長浜BGホテル","ChIJybhHhispAmARj0lscxsbskI","35.391991","136.282838","JP","TOR","TOR","HTL","300 Kawasakichō, Nagahama, Shiga 526-0846, Japan","jp_tor_htl_a_mid1","90","jp_tor_htl_a_mid1_90"
"trial","survey","40","723962","0.0-2.0-38.0","5e9f324c7a996d0aa2ff651e","626166b218b78fee4e9d8d4c","62618a7ea0e3ebddc9e8e8b0","12","21821","","{""P0_Q0"":null,""ambiguous"":4,""objects"":4,""invisible"":4,""chaos"":5}","","","","","","","","","","","","","","","","","[]","Nearby location of William O'Shea Campus (us_nyc-c_sch_a_6)","ChIJpefuOY9YwokR-Pk3vGiQNI4","40.7819913","-73.9762638","US","NYC","CTR","SCH","118 W 79th St, New York, NY 10024, USA","us_nyc-c_sch_b_6","0","us_nyc-c_sch_b_6_0"
"trial","survey","41","735000","0.0-2.0-39.0","5e9f324c7a996d0aa2ff651e","626166b218b78fee4e9d8d4c","62618a7ea0e3ebddc9e8e8b0","12","11030","","{""P0_Q0"":null,""ambiguous"":1,""objects"":1,""invisible"":2,""chaos"":1}","","","","","","","","","","","","","","","","","[]","Nearby location of Tsukishima 2nd Elementary School (jp_tok-c_sch_a_3)","ChIJHxLhHn2JGGARc3bs4ikCKls","35.660785","139.775206","JP","TOK","CTR","SCH","1-chōme-13-13-1 Kachidoki, Chuo City, Tokyo 104-0054, Japan","jp_tok-c_sch_b_3","180","jp_tok-c_sch_b_3_180"
"trial","survey","42","752210","0.0-2.0-40.0","5e9f324c7a996d0aa2ff651e","626166b218b78fee4e9d8d4c","62618a7ea0e3ebddc9e8e8b0","12","17201","","{""P0_Q0"":null,""ambiguous"":1,""objects"":1,""invisible"":1,""chaos"":1}","","","","","","","","","","","","","","","","","[]","Hotel Villa Fontaine Nihombashi-Hakozaki","HSTYOASY","35.68042","139.78604","JP","TOK","CTR","HTL","20-10, NIHOMBASHI-HAKOZAKI-CHO, TOKYO 103-0015","jp_tok-c_htl_a_low1","270","jp_tok-c_htl_a_low1_270"
"trial","survey","43","774299","0.0-2.0-41.0","5e9f324c7a996d0aa2ff651e","626166b218b78fee4e9d8d4c","62618a7ea0e3ebddc9e8e8b0","12","22080","","{""P0_Q0"":null,""ambiguous"":3,""objects"":3,""invisible"":2,""chaos"":3}","","","","","","","","","","","","","","","","","[]","Nearby location of Mercer Hotel (us_nyc-c_htl_a_ultra2)","ChIJBQxsB49ZwokRbGyFLxfuImc","40.7247177","-73.9975539","US","NYC","CTR","HTL","570 Broadway, New York, NY 10012, USA","us_nyc-c_htl_b_ultra2","0","us_nyc-c_htl_b_ultra2_0"
"trial","survey","44","787116","0.0-2.0-42.0","5e9f324c7a996d0aa2ff651e","626166b218b78fee4e9d8d4c","62618a7ea0e3ebddc9e8e8b0","12","12808","","{""P0_Q0"":null,""ambiguous"":1,""objects"":1,""invisible"":3,""chaos"":2}","","","","","","","","","","","","","","","","","[]","Léman Manhattan Preparatory School","ChIJ1R3juBZawokRy34rGleDCJs","40.7060686","-74.0140159","US","NYC","CTR","SCH","1 Morris St, New York, NY 10004, USA","us_nyc-c_sch_a_8","0","us_nyc-c_sch_a_8_0"
"trial","survey","45","807173","0.0-2.0-43.0","5e9f324c7a996d0aa2ff651e","626166b218b78fee4e9d8d4c","62618a7ea0e3ebddc9e8e8b0","12","20050","","{""P0_Q0"":null,""ambiguous"":2,""objects"":3,""invisible"":1,""chaos"":3}","","","","","","","","","","","","","","","","","[]","Guidepost Montessori at Museum Mile","ChIJM_EqNF5ZwokRqGSOTYl-ARs","40.7764017","-73.9629479","US","NYC","CTR","SCH","12 E 79th St, New York, NY 10075, USA","us_nyc-c_sch_a_7","0","us_nyc-c_sch_a_7_0"
"trial","survey","46","827074","0.0-2.0-44.0","5e9f324c7a996d0aa2ff651e","626166b218b78fee4e9d8d4c","62618a7ea0e3ebddc9e8e8b0","12","19892","","{""P0_Q0"":null,""ambiguous"":5,""objects"":3,""invisible"":3,""chaos"":4}","","","","","","","","","","","","","","","","","[]","ORCHARD STREET HOTEL","PWNYC109","40.72117","-73.98894","US","NYC","CTR","HTL","163 ORCHARD STREET, NEW YORK, NY 10002","us_nyc-c_htl_a_low1","270","us_nyc-c_htl_a_low1_270"
"trial","survey","47","841711","0.0-2.0-45.0","5e9f324c7a996d0aa2ff651e","626166b218b78fee4e9d8d4c","62618a7ea0e3ebddc9e8e8b0","12","14628","","{""P0_Q0"":null,""ambiguous"":1,""objects"":2,""invisible"":2,""chaos"":2}","","","","","","","","","","","","","","","","","[]","United States Postal Service","ChIJZSVRGDq7PIgRlo_a8I0Tib8","42.1718067","-83.7735227","US","ARB","ARB","POS","108 N Maple Rd, Saline, MI 48176, USA","us_arb_pos_a_1","90","us_arb_pos_a_1_90"
"trial","survey","48","851999","0.0-2.0-46.0","5e9f324c7a996d0aa2ff651e","626166b218b78fee4e9d8d4c","62618a7ea0e3ebddc9e8e8b0","12","10280","","{""P0_Q0"":null,""ambiguous"":1,""objects"":1,""invisible"":1,""chaos"":1}","","","","","","","","","","","","","","","","","[]","MyStays Asakusa","HSTYOACG","35.70393","139.79741","JP","TOK","PER","HTL","1-21-11, HONJO, TOKYO 130-0004","jp_tok-p_htl_a_low1","0","jp_tok-p_htl_a_low1_0"
"trial","survey","49","875477","0.0-2.0-47.0","5e9f324c7a996d0aa2ff651e","626166b218b78fee4e9d8d4c","62618a7ea0e3ebddc9e8e8b0","12","23470","","{""P0_Q0"":null,""ambiguous"":1,""objects"":2,""invisible"":1,""chaos"":1}","","","","","","","","","","","","","","","","","[]","Nearby location of Hotel Kaito (jp_hik_htl_a_low2)","ChIJK566KTuSAWARF4Kp9393J_4","35.3976612","136.0302169","JP","HIK","HIK","HTL","Japan, 〒520-1631 Shiga, Takashima, Imazuchō Nakoji, 2-chōme−６−３２","jp_hik_htl_b_low2","270","jp_hik_htl_b_low2_270"
"trial","survey","50","891092","0.0-2.0-48.0","5e9f324c7a996d0aa2ff651e","626166b218b78fee4e9d8d4c","62618a7ea0e3ebddc9e8e8b0","12","15607","","{""P0_Q0"":null,""ambiguous"":4,""objects"":3,""invisible"":4,""chaos"":4}","","","","","","","","","","","","","","","","","[]","Nearby location of THOMPSON CENTRAL PARK - NEW YORK (us_nyc-c_htl_a_high2)","ChIJO4JkSfdYwokRIlgrbHiZhtk","40.7652312","-73.9775167","US","NYC","CTR","HTL","116 W 58th St, New York, NY 10019, USA","us_nyc-c_htl_b_high2","270","us_nyc-c_htl_b_high2_270"
"trial","survey","51","906099","0.0-2.0-49.0","5e9f324c7a996d0aa2ff651e","626166b218b78fee4e9d8d4c","62618a7ea0e3ebddc9e8e8b0","12","14999","","{""P0_Q0"":null,""ambiguous"":1,""objects"":1,""invisible"":1,""chaos"":1}","","","","","","","","","","","","","","","","","[]","Nearby location of Yonehara Shiritsu Yonehara Elementary School (jp_hik_sch_a_1)","ChIJHY8tRnsrAmARDrvbTNjR_tg","35.3153923","136.2799377","JP","HIK","HIK","SCH","Japan, 〒521-0011 Shiga, Maibara, Nakatara, ６０３−１ Sun Village 米原","jp_hik_sch_b_1","180","jp_hik_sch_b_1_180"
"trial","survey","52","926044","0.0-2.0-50.0","5e9f324c7a996d0aa2ff651e","626166b218b78fee4e9d8d4c","62618a7ea0e3ebddc9e8e8b0","12","19937","","{""P0_Q0"":null,""ambiguous"":2,""objects"":2,""invisible"":1,""chaos"":2}","","","","","","","","","","","","","","","","","[]","Nearby location of Horace Mann Barnard Elementary (us_nyc-p_sch_a_1)","ChIJ9ds6urrzwokRAWUJ8d6GdJk","40.8906469","-73.9015387","US","NYC","PER","SCH","Chrysostom Hall, 4513 Manhattan College Pkwy, Bronx, NY 10471, USA","us_nyc-p_sch_b_1","0","us_nyc-p_sch_b_1_0"
"trial","survey","53","939843","0.0-2.0-51.0","5e9f324c7a996d0aa2ff651e","626166b218b78fee4e9d8d4c","62618a7ea0e3ebddc9e8e8b0","12","13791","","{""P0_Q0"":null,""ambiguous"":2,""objects"":2,""invisible"":1,""chaos"":1}","","","","","","","","","","","","","","","","","[]","Nearby location of Mercer Hotel (us_nyc-c_htl_a_ultra2)","ChIJBQxsB49ZwokRbGyFLxfuImc","40.7247177","-73.9975539","US","NYC","CTR","HTL","570 Broadway, New York, NY 10012, USA","us_nyc-c_htl_b_ultra2","180","us_nyc-c_htl_b_ultra2_180"
"trial","survey","54","958109","0.0-2.0-52.0","5e9f324c7a996d0aa2ff651e","626166b218b78fee4e9d8d4c","62618a7ea0e3ebddc9e8e8b0","12","18257","","{""P0_Q0"":null,""ambiguous"":1,""objects"":1,""invisible"":1,""chaos"":1}","","","","","","","","","","","","","","","","","[]","Nearby location of びわ湖畔リゾート 白浜荘 (jp_hik_htl_a_mid2)","ChIJR-fdOL6aAWARRx-bTY1d8b8","35.3062783","136.038326","JP","HIK","HIK","HTL","2315-3 Adogawachō Shimoogawa, Takashima, Shiga 520-1223, Japan","jp_hik_htl_b_mid2","270","jp_hik_htl_b_mid2_270"
"trial","survey","55","987551","0.0-2.0-53.0","5e9f324c7a996d0aa2ff651e","626166b218b78fee4e9d8d4c","62618a7ea0e3ebddc9e8e8b0","12","29435","","{""P0_Q0"":null,""ambiguous"":2,""objects"":2,""invisible"":1,""chaos"":1}","","","","","","","","","","","","","","","","","[]","長浜BGホテル","ChIJybhHhispAmARj0lscxsbskI","35.391991","136.282838","JP","TOR","TOR","HTL","300 Kawasakichō, Nagahama, Shiga 526-0846, Japan","jp_tor_htl_a_mid1","180","jp_tor_htl_a_mid1_180"
"trial","survey","56","1012997","0.0-2.0-54.0","5e9f324c7a996d0aa2ff651e","626166b218b78fee4e9d8d4c","62618a7ea0e3ebddc9e8e8b0","12","25438","","{""P0_Q0"":null,""ambiguous"":2,""objects"":1,""invisible"":1,""chaos"":1}","","","","","","","","","","","","","","","","","[]","MyStays Asakusa","HSTYOACG","35.70393","139.79741","JP","TOK","PER","HTL","1-21-11, HONJO, TOKYO 130-0004","jp_tok-p_htl_a_low1","180","jp_tok-p_htl_a_low1_180"
"trial","survey","57","1028881","0.0-2.0-55.0","5e9f324c7a996d0aa2ff651e","626166b218b78fee4e9d8d4c","62618a7ea0e3ebddc9e8e8b0","12","15875","","{""P0_Q0"":null,""ambiguous"":1,""objects"":2,""invisible"":1,""chaos"":1}","","","","","","","","","","","","","","","","","[]","Tyler school","ChIJt-5KfXv1wokRq4WnokUwQ44","40.8513114","-73.8564072","US","NYC","PER","SCH","1916 Hone Ave, Bronx, NY 10461, USA","us_nyc-p_sch_a_3","90","us_nyc-p_sch_a_3_90"
"trial","survey","58","1038752","0.0-2.0-56.0","5e9f324c7a996d0aa2ff651e","626166b218b78fee4e9d8d4c","62618a7ea0e3ebddc9e8e8b0","12","9863","","{""P0_Q0"":null,""ambiguous"":1,""objects"":1,""invisible"":1,""chaos"":1}","","","","","","","","","","","","","","","","","[]","Nearby location of Chelsea House Victorian Inn (us_chl_htl_a_high1)","ChIJrSMrxwHMPIgRw8h_aIwPHas","42.3194142","-84.0203567","US","CHL","CHL","HTL","310 N Main St Suite 202A, Chelsea, MI 48118, USA","us_chl_htl_b_high1","270","us_chl_htl_b_high1_270"
"trial","survey","59","1056965","0.0-2.0-57.0","5e9f324c7a996d0aa2ff651e","626166b218b78fee4e9d8d4c","62618a7ea0e3ebddc9e8e8b0","12","18207","","{""P0_Q0"":null,""ambiguous"":2,""objects"":1,""invisible"":1,""chaos"":1}","","","","","","","","","","","","","","","","","[]","P.S. 020 John Bowne","ChIJReGEShFgwokRiwUXE2jYFz4","40.7583819","-73.8243949","US","NYC","PER","SCH","142-30 Barclay Ave, Queens, NY 11355, USA","us_nyc-p_sch_a_5","0","us_nyc-p_sch_a_5_0"
"trial","survey","60","1068619","0.0-2.0-58.0","5e9f324c7a996d0aa2ff651e","626166b218b78fee4e9d8d4c","62618a7ea0e3ebddc9e8e8b0","12","11645","","{""P0_Q0"":null,""ambiguous"":2,""objects"":2,""invisible"":2,""chaos"":2}","","","","","","","","","","","","","","","","","[]","びわ湖畔リゾート 白浜荘","ChIJIeJgVfibAWAR-Jd7lsdIM-M","35.3054063","136.0367666","JP","HIK","HIK","HTL","2300-1 Adogawachō Shimoogawa, Takashima, Shiga 520-1223, Japan","jp_hik_htl_a_mid2","90","jp_hik_htl_a_mid2_90"
"trial","survey","61","1080414","0.0-2.0-59.0","5e9f324c7a996d0aa2ff651e","626166b218b78fee4e9d8d4c","62618a7ea0e3ebddc9e8e8b0","12","11787","","{""P0_Q0"":null,""ambiguous"":1,""objects"":1,""invisible"":1,""chaos"":1}","","","","","","","","","","","","","","","","","[]","Nearby location of Hotel Route-Inn Nagahama Inter (us_chl_htl_a_low1)","ChIJ64OtwtAuAmARNDquDmxOjLw","35.3955527","136.2935564","JP","TOR","TOR","HTL","66 Yamashinachō, Nagahama, Shiga 526-0847, Japan","jp_tor_htl_b_low1","90","jp_tor_htl_b_low1_90"
"trial","survey","62","1091800","0.0-2.0-60.0","5e9f324c7a996d0aa2ff651e","626166b218b78fee4e9d8d4c","62618a7ea0e3ebddc9e8e8b0","12","11378","","{""P0_Q0"":null,""ambiguous"":2,""objects"":1,""invisible"":2,""chaos"":2}","","","","","","","","","","","","","","","","","[]","Nearby location of Mitchell Elementary School (us_arb_sch_a_4)","ChIJs-axekGvPIgRBvxYNOm48Hc","42.2361096","-83.6952309","US","ARB","ARB","SCH","3318 Williamsburg Rd, Ann Arbor, MI 48108, USA","us_arb_sch_b_4","270","us_arb_sch_b_4_270"
"trial","survey","63","1103291","0.0-2.0-61.0","5e9f324c7a996d0aa2ff651e","626166b218b78fee4e9d8d4c","62618a7ea0e3ebddc9e8e8b0","12","11484","","{""P0_Q0"":null,""ambiguous"":2,""objects"":1,""invisible"":3,""chaos"":2}","","","","","","","","","","","","","","","","","[]","South Meadows Elementary School","ChIJQaIiMqnOPIgRKzWLjS6IoXg","42.3121005","-84.0238583","US","CHL","CHL","SCH","335 Pierce St, Chelsea, MI 48118, USA","us_chl_sch_a_1","0","us_chl_sch_a_1_0"
"trial","survey","64","1129807","0.0-2.0-62.0","5e9f324c7a996d0aa2ff651e","626166b218b78fee4e9d8d4c","62618a7ea0e3ebddc9e8e8b0","12","26508","","{""P0_Q0"":null,""ambiguous"":2,""objects"":3,""invisible"":1,""chaos"":3}","","","","","","","","","","","","","","","","","[]","Nearby location of Ryōgoku Post Office (jp_tok-c_pos_a_5)","ChIJBRNSarKOGGARKk3b5BlK71s","35.696528","139.784235","JP","TOK","CTR","POS","Japan, 〒111-0053 Tokyo, Taito City, Asakusabashi, 1-chōme−2−８ 丸一ビル","jp_tok-c_pos_b_5","180","jp_tok-c_pos_b_5_180"
"trial","survey","65","1140057","0.0-2.0-63.0","5e9f324c7a996d0aa2ff651e","626166b218b78fee4e9d8d4c","62618a7ea0e3ebddc9e8e8b0","12","10240","","{""P0_Q0"":null,""ambiguous"":1,""objects"":1,""invisible"":2,""chaos"":2}","","","","","","","","","","","","","","","","","[]","United States Postal Service","ChIJRxSbQ7LOPIgRxY-tEHFOePE","42.3058978","-84.0197951","US","CHL","CHL","POS","1101 S Main St Ste 100, Chelsea, MI 48118, USA","us_chl_pos_a_1","90","us_chl_pos_a_1_90"
"trial","survey","66","1155243","0.0-2.0-64.0","5e9f324c7a996d0aa2ff651e","626166b218b78fee4e9d8d4c","62618a7ea0e3ebddc9e8e8b0","12","15178","","{""P0_Q0"":null,""ambiguous"":3,""objects"":1,""invisible"":2,""chaos"":1}","","","","","","","","","","","","","","","","","[]","Nearby location of Ann Arbor Hills Child Development Center (us_arb_sch_a_1)","ChIJayC39uGuPIgRi68_P3AKb4Y","42.2614403","-83.7036603","US","ARB","ARB","SCH","1620 Glenwood Rd, Ann Arbor, MI 48104, USA","us_arb_sch_b_1","270","us_arb_sch_b_1_270"
"trial","survey","67","1167204","0.0-2.0-65.0","5e9f324c7a996d0aa2ff651e","626166b218b78fee4e9d8d4c","62618a7ea0e3ebddc9e8e8b0","12","11954","","{""P0_Q0"":null,""ambiguous"":4,""objects"":3,""invisible"":3,""chaos"":4}","","","","","","","","","","","","","","","","","[]","Adahi Sano Post Office","ChIJuYxTuuOPGGAREn1yJl24fbw","35.7864794","139.8411136","JP","HIK","HIK","POS","2-chōme-11-12 Sano, Adachi City, Tokyo 121-0053, Japan","jp_hik_pos_a_3","90","jp_hik_pos_a_3_90"
"trial","survey","68","1182592","0.0-2.0-66.0","5e9f324c7a996d0aa2ff651e","626166b218b78fee4e9d8d4c","62618a7ea0e3ebddc9e8e8b0","12","15379","","{""P0_Q0"":null,""ambiguous"":1,""objects"":2,""invisible"":3,""chaos"":2}","","","","","","","","","","","","","","","","","[]","Nearby location of Waseda Daigaku-mae Post Office (jp_hik_pos_a_4)","ChIJ3fFikwKNGGARdbidMhgiTgs","35.7066137","139.7233789","JP","HIK","HIK","POS","508 Wasedatsurumakichō, Shinjuku City, Tokyo 162-0041, Japan","jp_hik_pos_b_4","180","jp_hik_pos_b_4_180"
"trial","survey","69","1199148","0.0-2.0-67.0","5e9f324c7a996d0aa2ff651e","626166b218b78fee4e9d8d4c","62618a7ea0e3ebddc9e8e8b0","12","16548","","{""P0_Q0"":null,""ambiguous"":4,""objects"":3,""invisible"":3,""chaos"":4}","","","","","","","","","","","","","","","","","[]","Nearby location of ORCHARD STREET HOTEL (us_nyc-c_htl_a_low1)","ChIJ8TquxYZZwokRPgCEBRlBnXM","40.7198222","-73.9898421","US","NYC","CTR","HTL","130 Allen St, New York, NY 10002, USA","us_nyc-c_htl_b_low1","90","us_nyc-c_htl_b_low1_90"
"demographics","survey-html-form","70","1206257","0.0-2.0-68.0","5e9f324c7a996d0aa2ff651e","626166b218b78fee4e9d8d4c","62618a7ea0e3ebddc9e8e8b0","12","7108","","{""age"":""28"",""gender"":""male"",""gender-self-describe"":"""",""zipcode"":""78249""}","","","","","","","","","","","","","","","","","","","","","","","","","","","","",""
"demographics","survey","71","1212861","0.0-2.0-69.0","5e9f324c7a996d0aa2ff651e","626166b218b78fee4e9d8d4c","62618a7ea0e3ebddc9e8e8b0","12","6589","","{""P0_Q0"":null,""outsideUS"":""No"",""outsideUS_years"":""""}","","","","","","","","","","","","","","","","","[]","","","","","","","","","","","",""
"end-survey","survey-text","72","1214868","0.0-2.0-70.0","5e9f324c7a996d0aa2ff651e","626166b218b78fee4e9d8d4c","62618a7ea0e3ebddc9e8e8b0","12","1999","","{""Q0"":""""}","","","","","","","","","","","","","","","","","","","","","","","","","","","","",""
