"task","trial_type","trial_index","time_elapsed","internal_node_id","subject_id","study_id","session_id","group","rt","stimulus","response","width","height","webaudio","browser","browser_version","mobile","os","fullscreen","vsync_rate","webcam","microphone","success","timeout","failed_images","failed_audio","failed_video","accuracy","name","place_id","lat","lng","culture","loc1","loc2","loct","address","loc_id_prev","angle","loc_id"
"pavlovia-init","pavlovia","0","3323","0.0-0.0","5fdca41ecb769722e2266d8a","626166b218b78fee4e9d8d4d","6261813691fa42a6027e385c","7","","","","","","","","","","","","","","","","","","","","","","","","","","","","","","","",""
"consent","html-button-response","1","10824","0.0-1.0","5fdca41ecb769722e2266d8a","626166b218b78fee4e9d8d4d","6261813691fa42a6027e385c","7","7498","
        <div style=""font-size: 80%; max-width:700px"">
            <h2>Informed Consent</h2><br>
        
            <div style=""text-align: left"">
            <h3>Streetscape Perceptions</h3>
            <b>HUM00189138</b>
            <br><hr>
        
            <h4>DESCRIPTION</h4>
            <p>
                In this study, you will view Google Street View images. You will then answer questions about your impressions of the streetscapes presented in those images.
            </p><br>
        
            <h4>TIME INVOLVEMENT</h4>
            <p>Your participation will take approximately 30 minutes.</p><br>
        
            <h4>RISKS AND BENEFITS</h4>
            <p>
                The risks associated with this study are minimal. The benefits which may reasonably be expected to result from this study are none.  We cannot and do not guarantee or promise that you will receive any benefits from this study. 
            </p><br>
        
            <h4>PAYMENTS</h4>
            <p>You will be paid <b>$5.00</b> for your participation.</p><br>
        
            <h4>SUBJECT'S RIGHTS</h4>
            <p>
                If you have read this form and have decided to participate in this project, please understand your participation is voluntary and you have the right to withdraw your consent or discontinue participation at any time without penalty or loss of benefits to which you are otherwise entitled.  The alternative is not to participate.  You have the right to refuse to answer particular questions.  
            </p>
        
            <p>
                Your individual privacy will be maintained in all published and written data resulting from the study. Your responses will be kept confidential: you are given a participant code, and no one, not even the research team, can match that code with your identity. Your collected information may also be shared with other researchers as part of our dataset.
            </p><br>
        
            <h4>CONTACT INFORMATION</h4>
            <p>
                Questions: If you have any questions, concerns or complaints about this research, its procedures, risks and benefits, contact the Protocol Director, Nicholas Camp, npcamp@umich.edu, (443) 851-6783.
            </p>
        
            <p>
                If you have questions about your rights as a research participant, or wish to obtain information, ask questions or discuss any concerns about this study with someone other than the researcher(s), please contact the following:
                <br><br>
        
                University of Michigan<br>
                Health Sciences and Behavioral Sciences Institutional Review Board
                (IRB-HSBS)<br>
                2800 Plymouth Road <br>
                Building 520, Room 1169 <br>
                Ann Arbor, MI 48109-2800 <br>
                Telephone: 734-936-0933 or toll free (866) 936-0933 <br>
                Fax: 734-936-1852 <br />
                E-mail: irbhsbs@umich.edu <br>
            </p>
        
            <p>
                You can also contact the University of Michigan Compliance Hotline at 1-866-990-0111. You may also print this consent form to keep.
            </p>
            <br>
        
            <div class=""alert alert-warning""><b>
                Do you consent to participate in this study? If you consent to participate in this study, please click “Accept and continue.”
            </b></div>
            </div>
        </div>
    ","1","","","","","","","","","","","","","","","","","","","","","","","","","","","","",""
"browser-check","browser-check","2","11819","0.0-2.0-0.0","5fdca41ecb769722e2266d8a","626166b218b78fee4e9d8d4d","6261813691fa42a6027e385c","7","","","","1393","764","true","chrome","99.0.4844","false","Mac OS","true","60.81","true","true","","","","","","","","","","","","","","","","","",""
"","preload","3","15129","0.0-2.0-1.0","5fdca41ecb769722e2266d8a","626166b218b78fee4e9d8d4d","6261813691fa42a6027e385c","7","","","","","","","","","","","","","","","true","false","[]","[]","[]","","","","","","","","","","","","",""
"instructions","html-button-response","4","25007","0.0-2.0-2.0","5fdca41ecb769722e2266d8a","626166b218b78fee4e9d8d4d","6261813691fa42a6027e385c","7","9876","
        <div class=""text-container"">
            <h1>Welcome to the study!</h1>
            
            <div class=""text-left"">
                <p>
                    In this study, we are interested in how people think about different Google Street View images. Google Street View takes pictures of streets used for Google Earth and Google Maps. You’ll see Google Street View images of different places and answer some questions about each one.
                </p>
            </div>
            
            <img src='
            https://maps.googleapis.com/maps/api/streetview?size=640x320
            &location=37.783631,-122.432766
            &heading=80
            &pitch=2
            &fov=100
            &radius=150
            &key=AIzaSyC2OxRDg6qlzZDj7j0UAD2XyE0qWokLvvs
            &source=outdoor'>
        
            <br>
        <br>
    ","0","","","","","","","","","","","","","","","","","","","","","","","","","","","","",""
"instructions","html-button-response","5","45976","0.0-2.0-3.0","5fdca41ecb769722e2266d8a","626166b218b78fee4e9d8d4d","6261813691fa42a6027e385c","7","20662","
        <style>
            img.small {
            max-width: 100px;
            }
            li {
            text-indent: 40px;
            }
        </style>

        <div class=""text-container text-left"">
            <p>For each picture, we’d like your impressions of the scene:</p>
            
            <hr>
                Are there <b>clear, distinct boundaries</b> between objects in the scene, or are the <b>boundaries ambiguous or unclear</b>?
                
                <li>clear, distinct boundaries: <img class=""small"" src=""assets/img/ambiguous-low.png""></li>
                <li>ambiguous or unclear boundaries: <img class=""small"" src=""assets/img/ambiguous-high.png""></li>
            <hr>
            <br>
                Are there <b>only a few different objects</b> in the scene, or is there <b>a large number</b>?
            <br><br>
            <hr>
                Are only <b>a few parts</b> of the scene <b>invisible or obscured</b>, or are <b>many parts invisible or obscured</b>?
                
                <li>a few parts invisible or obscured: <img class=""small"" src=""assets/img/invisible-low.png""></li>
                <li>many parts invisible or obscured: <img class=""small"" src=""assets/img/invisible-high.png""></li>
            <hr>
            <br>
                Does the scene look <b>organized</b> or <b>chaotic</b> to you?
            <br><br>
            <hr>
            
            <p>
                There are no right or wrong answers: we are interested in <b>your</b> impression. Note that some images might have individual buildings or faces blurred for privacy. Please ignore these when making your judgments.
            </p>
        </div>
        <br>
    ","0","","","","","","","","","","","","","","","","","","","","","","","","","","","","",""
"instructions","html-button-response","6","51026","0.0-2.0-4.0","5fdca41ecb769722e2266d8a","626166b218b78fee4e9d8d4d","6261813691fa42a6027e385c","7","5047","
        <div class=""text-container text-left"">
            <p>Please make sure you are doing this study in an area where you can focus and complete the survey in one sitting.</p>

            <p>Don’t spend too much time on any one picture, and, again go with your gut impression!</p>
            
            <p>The study should take about 30 minutes. We’ll let you know when you’re halfway through.</p>
        </div>
            
        <h3>Ready? Click next to get started!</h3>
        <br>
    ","0","","","","","","","","","","","","","","","","","","","","","","","","","","","","",""
"trial","survey","7","78271","0.0-2.0-5.0","5fdca41ecb769722e2266d8a","626166b218b78fee4e9d8d4d","6261813691fa42a6027e385c","7","27185","","{""P0_Q0"":null,""ambiguous"":1,""objects"":2,""invisible"":3,""chaos"":1}","","","","","","","","","","","","","","","","","[]","Ann Arbor Christian School","ChIJ1SluE2-tPIgR2t57M0S5d6M","42.354132","-83.750108","US","ARB","ARB","SCH","5500 Whitmore Lake Rd, Ann Arbor, MI 48105, USA","us_arb_sch_a_2","180","us_arb_sch_a_2_180"
"trial","survey","8","102423","0.0-2.0-6.0","5fdca41ecb769722e2266d8a","626166b218b78fee4e9d8d4d","6261813691fa42a6027e385c","7","24132","","{""P0_Q0"":null,""ambiguous"":2,""objects"":4,""invisible"":3,""chaos"":1}","","","","","","","","","","","","","","","","","[]","Tokyo Marriott Hotel","MCTYOMCM","35.62207","139.73696","JP","TOK","PER","HTL","4-7-36 KITASHINAGAWA SHINAGAWA, TOKYO 140-0001","jp_tok-p_htl_a_high1","90","jp_tok-p_htl_a_high1_90"
"trial","survey","9","126282","0.0-2.0-7.0","5fdca41ecb769722e2266d8a","626166b218b78fee4e9d8d4d","6261813691fa42a6027e385c","7","23840","","{""P0_Q0"":null,""ambiguous"":1,""objects"":1,""invisible"":3,""chaos"":1}","","","","","","","","","","","","","","","","","[]","Jittered SV for Aman Tokyo (jp_tok-c_htl_a_ultra1)","ChIJVVWFvviLGGARpWS-yu8uP1k","35.6853286","139.7666855","JP","TOK","CTR","HTL","2-chōme-2-1 Ōtemachi, Chiyoda City, Tokyo 100-0004, Japan","jp_tok-c_htl_a_ultra1","270","jp_tok-c_htl_a_ultra1_270"
"trial","survey","10","155184","0.0-2.0-8.0","5fdca41ecb769722e2266d8a","626166b218b78fee4e9d8d4d","6261813691fa42a6027e385c","7","28883","","{""P0_Q0"":null,""ambiguous"":4,""objects"":4,""invisible"":4,""chaos"":4}","","","","","","","","","","","","","","","","","[]","Nearby location of THOMPSON CENTRAL PARK - NEW YORK (us_nyc-c_htl_a_high2)","ChIJO4JkSfdYwokRIlgrbHiZhtk","40.7652312","-73.9775167","US","NYC","CTR","HTL","116 W 58th St, New York, NY 10019, USA","us_nyc-c_htl_b_high2","180","us_nyc-c_htl_b_high2_180"
"trial","survey","11","172719","0.0-2.0-9.0","5fdca41ecb769722e2266d8a","626166b218b78fee4e9d8d4d","6261813691fa42a6027e385c","7","17520","","{""P0_Q0"":null,""ambiguous"":1,""objects"":4,""invisible"":1,""chaos"":1}","","","","","","","","","","","","","","","","","[]","Nearby location of Best Western Plus Arena Hotel (us_nyc-p_htl_a_low1)","ChIJszayzJpbwokR1Pc20klCR2Y","40.679297","-73.947757","US","NYC","PER","HTL","170 Herkimer St, Brooklyn, NY 11216, USA","us_nyc-p_htl_b_low1","270","us_nyc-p_htl_b_low1_270"
"trial","survey","12","188888","0.0-2.0-10.0","5fdca41ecb769722e2266d8a","626166b218b78fee4e9d8d4d","6261813691fa42a6027e385c","7","16149","","{""P0_Q0"":null,""ambiguous"":1,""objects"":2,""invisible"":1,""chaos"":1}","","","","","","","","","","","","","","","","","[]","Manually Updated Days Inn by Wyndham Ann Arbor","DIARB238","42.252588","-83.680721","US","ARB","ARB","HTL","2380 CARPENTER ROAD, ANN ARBOR, MI 48108","us_arb_htl_a_low2","90","us_arb_htl_a_low2_90"
"trial","survey","13","207391","0.0-2.0-11.0","5fdca41ecb769722e2266d8a","626166b218b78fee4e9d8d4d","6261813691fa42a6027e385c","7","18487","","{""P0_Q0"":null,""ambiguous"":4,""objects"":2,""invisible"":4,""chaos"":3}","","","","","","","","","","","","","","","","","[]","Nearby location of The Westin Tokyo (jp_tok-p_htl_a_high2)","ChIJrVZsu8CLGGARMYSk3wOv6Fk","35.6401336","139.7167882","JP","TOK","PER","HTL","Japan, 〒141-0021 Tokyo, Shinagawa City, Kamiōsaki, 2-chōme−3−３０ イトーピア長者丸ＩＤＥＡ","jp_tok-p_htl_b_high2","90","jp_tok-p_htl_b_high2_90"
"trial","survey","14","225207","0.0-2.0-12.0","5fdca41ecb769722e2266d8a","626166b218b78fee4e9d8d4d","6261813691fa42a6027e385c","7","17800","","{""P0_Q0"":null,""ambiguous"":5,""objects"":4,""invisible"":3,""chaos"":4}","","","","","","","","","","","","","","","","","[]","Nearby location of Kakezuka Elementary School (jp_tok-c_sch_a_4)","ChIJZ3Y9uRWLGGAR3VkcUPtDdr0","35.6430912","139.71302","JP","TOK","CTR","SCH","4 Chome-20 Ebisu, Shibuya City, Tokyo 150-0013, Japan","jp_tok-c_sch_b_4","270","jp_tok-c_sch_b_4_270"
"trial","survey","15","245643","0.0-2.0-13.0","5fdca41ecb769722e2266d8a","626166b218b78fee4e9d8d4d","6261813691fa42a6027e385c","7","20420","","{""P0_Q0"":null,""ambiguous"":4,""objects"":4,""invisible"":2,""chaos"":4}","","","","","","","","","","","","","","","","","[]","Nakano Sun Cuore Post Office","ChIJcTw2u5DyGGAReXXGTvjxlhw","35.7089211","139.6647475","JP","TOK","PER","POS","Japan, 〒164-0001 Tokyo, Nakano City, Nakano, 4-chōme−3−１ 地下１階","jp_tok-p_pos_a_2","0","jp_tok-p_pos_a_2_0"
"trial","survey","16","257762","0.0-2.0-14.0","5fdca41ecb769722e2266d8a","626166b218b78fee4e9d8d4d","6261813691fa42a6027e385c","7","12108","","{""P0_Q0"":null,""ambiguous"":1,""objects"":3,""invisible"":1,""chaos"":1}","","","","","","","","","","","","","","","","","[]","United States Postal Service","ChIJb5pfwxb2wokR4-EvJ1w0znA","40.8036447","-73.9541827","US","NYC","CTR","POS","232 W 116th St, New York, NY 10026, USA","us_nyc-c_pos_a_7","0","us_nyc-c_pos_a_7_0"
"trial","survey","17","277630","0.0-2.0-15.0","5fdca41ecb769722e2266d8a","626166b218b78fee4e9d8d4d","6261813691fa42a6027e385c","7","19856","","{""P0_Q0"":null,""ambiguous"":2,""objects"":3,""invisible"":4,""chaos"":2}","","","","","","","","","","","","","","","","","[]","Nearby location of Mitchell Elementary School (us_arb_sch_a_4)","ChIJs-axekGvPIgRBvxYNOm48Hc","42.2361096","-83.6952309","US","ARB","ARB","SCH","3318 Williamsburg Rd, Ann Arbor, MI 48108, USA","us_arb_sch_b_4","0","us_arb_sch_b_4_0"
"trial","survey","18","293380","0.0-2.0-16.0","5fdca41ecb769722e2266d8a","626166b218b78fee4e9d8d4d","6261813691fa42a6027e385c","7","15739","","{""P0_Q0"":null,""ambiguous"":4,""objects"":2,""invisible"":4,""chaos"":3}","","","","","","","","","","","","","","","","","[]","Oizumi Daini Elementary School","ChIJOT0Kk9nuGGARlr5-SQA1DDo","35.744542","139.573028","JP","TOK","PER","SCH","4-chōme-29-11 Minamiōizumi, Nerima City, Tokyo 178-0064, Japan","jp_tok-p_sch_a_6","270","jp_tok-p_sch_a_6_270"
"trial","survey","19","307732","0.0-2.0-17.0","5fdca41ecb769722e2266d8a","626166b218b78fee4e9d8d4d","6261813691fa42a6027e385c","7","14339","","{""P0_Q0"":null,""ambiguous"":2,""objects"":2,""invisible"":4,""chaos"":3}","","","","","","","","","","","","","","","","","[]","TownePlace Suites by Marriott Ann Arbor","TOARBTPT","42.23796","-83.74932","US","ARB","ARB","HTL","1301 BRIARWOOD CIRCLE DR, ANN ARBOR, MI 48108","us_arb_htl_a_mid1","90","us_arb_htl_a_mid1_90"
"trial","survey","20","323968","0.0-2.0-18.0","5fdca41ecb769722e2266d8a","626166b218b78fee4e9d8d4d","6261813691fa42a6027e385c","7","16223","","{""P0_Q0"":null,""ambiguous"":2,""objects"":2,""invisible"":4,""chaos"":1}","","","","","","","","","","","","","","","","","[]","Nearby location of Rakuten STAY HOUSE×WILLSTYLE 八幡堀 (jp_hik_htl_a_high1)","ChIJ-fEvCXl5AWAR8xruOW8CYd0","35.1408592","136.0976484","JP","HIK","HIK","HTL","485-9 Tagachō, Omihachiman, Shiga 523-0821, Japan","jp_hik_htl_b_high1","270","jp_hik_htl_b_high1_270"
"trial","survey","21","337351","0.0-2.0-19.0","5fdca41ecb769722e2266d8a","626166b218b78fee4e9d8d4d","6261813691fa42a6027e385c","7","13368","","{""P0_Q0"":null,""ambiguous"":5,""objects"":2,""invisible"":5,""chaos"":3}","","","","","","","","","","","","","","","","","[]","Nearby location of Jingūmae 6 Post Office (jp_tok-c_pos_a_2)","ChIJo2FXfqaMGGARaHWKnjoqihY","35.665387","139.7037685","JP","TOK","CTR","POS","6-chōme-16-6 Jingūmae, Shibuya City, Tokyo 150-0001, Japan","jp_tok-c_pos_b_2","270","jp_tok-c_pos_b_2_270"
"trial","survey","22","354455","0.0-2.0-20.0","5fdca41ecb769722e2266d8a","626166b218b78fee4e9d8d4d","6261813691fa42a6027e385c","7","17092","","{""P0_Q0"":null,""ambiguous"":2,""objects"":2,""invisible"":3,""chaos"":3}","","","","","","","","","","","","","","","","","[]","Nearby location of The Williamsburg Hotel (us_nyc-p_htl_a_high1)","ChIJH00_Y11ZwokR19006V8VF7Q","40.7203468","-73.9589785","US","NYC","PER","HTL","84 N 9th St, Brooklyn, NY 11249, USA","us_nyc-p_htl_b_high1","180","us_nyc-p_htl_b_high1_180"
"trial","survey","23","368887","0.0-2.0-21.0","5fdca41ecb769722e2266d8a","626166b218b78fee4e9d8d4d","6261813691fa42a6027e385c","7","14419","","{""P0_Q0"":null,""ambiguous"":4,""objects"":3,""invisible"":4,""chaos"":5}","","","","","","","","","","","","","","","","","[]","Bunkyo Otsuka 3 Post Office","ChIJ2xa06qWNGGARyOBmGzqDPvY","35.7218144","139.7382888","JP","TOK","CTR","POS","3-chōme-39-7 Ōtsuka, Bunkyo City, Tokyo 112-0012, Japan","jp_tok-c_pos_a_7","180","jp_tok-c_pos_a_7_180"
"trial","survey","24","382489","0.0-2.0-22.0","5fdca41ecb769722e2266d8a","626166b218b78fee4e9d8d4d","6261813691fa42a6027e385c","7","13589","","{""P0_Q0"":null,""ambiguous"":1,""objects"":1,""invisible"":1,""chaos"":1}","","","","","","","","","","","","","","","","","[]","Baymont by Wyndham Chelsea","ChIJ3WjGMLjOPIgRTSh5bhMfx-Q","42.2995297","-84.0281015","US","CHL","CHL","HTL","1540 Commerce Park Dr, Chelsea, MI 48118, USA","us_chl_htl_a_mid1","0","us_chl_htl_a_mid1_0"
"trial","survey","25","399725","0.0-2.0-23.0","5fdca41ecb769722e2266d8a","626166b218b78fee4e9d8d4d","6261813691fa42a6027e385c","7","17218","","{""P0_Q0"":null,""ambiguous"":4,""objects"":1,""invisible"":4,""chaos"":1}","","","","","","","","","","","","","","","","","[]","Minami-Ikebukuro Post Office","ChIJZ0rDTmiNGGARmRNW8DDznoU","35.7271243","139.7133376","JP","TOK","CTR","POS","2-chōme-24-1 Minamiikebukuro, Toshima City, Tokyo 171-0022, Japan","jp_tok-c_pos_a_6","90","jp_tok-c_pos_a_6_90"
"trial","survey","26","411877","0.0-2.0-24.0","5fdca41ecb769722e2266d8a","626166b218b78fee4e9d8d4d","6261813691fa42a6027e385c","7","12139","","{""P0_Q0"":null,""ambiguous"":1,""objects"":1,""invisible"":3,""chaos"":1}","","","","","","","","","","","","","","","","","[]","Nearby location of Ann Arbor Christian School (us_arb_sch_a_2)","ChIJx979uW-tPIgRK2esjhwtDDE","42.352939","-83.7497999","US","ARB","ARB","SCH","5460 Whitmore Lake Rd, Ann Arbor, MI 48105, USA","us_arb_sch_b_2","180","us_arb_sch_b_2_180"
"trial","survey","27","429794","0.0-2.0-25.0","5fdca41ecb769722e2266d8a","626166b218b78fee4e9d8d4d","6261813691fa42a6027e385c","7","17905","","{""P0_Q0"":null,""ambiguous"":1,""objects"":1,""invisible"":3,""chaos"":1}","","","","","","","","","","","","","","","","","[]","Nearby location of Baymont by Wyndham Chelsea (us_chl_htl_a_mid1)","ChIJPR5PbrjOPIgRniUqQCWoPWs","42.298341","-84.0291029","US","CHL","CHL","HTL","1620 Commerce Park Dr suite 100, Chelsea, MI 48118, USA","us_chl_htl_b_mid1","270","us_chl_htl_b_mid1_270"
"trial","survey","28","445277","0.0-2.0-26.0","5fdca41ecb769722e2266d8a","626166b218b78fee4e9d8d4d","6261813691fa42a6027e385c","7","15469","","{""P0_Q0"":null,""ambiguous"":3,""objects"":1,""invisible"":5,""chaos"":2}","","","","","","","","","","","","","","","","","[]","Manually Updated Jittered SV for Nearby location of Hotel Villa Fontaine Nihombashi-Hakozaki (jp_tok-c_htl_a_low1) (jp_tok-c_htl_b_low1)","ChIJcZnDxKeJGGARHOldLPKzIl8","35.682421","139.78596","JP","TOK","CTR","HTL","2-chōme-2 Nihonbashikakigarachō, Chuo City, Tokyo 103-0014, Japan","jp_tok-c_htl_b_low1","90","jp_tok-c_htl_b_low1_90"
"trial","survey","29","461815","0.0-2.0-27.0","5fdca41ecb769722e2266d8a","626166b218b78fee4e9d8d4d","6261813691fa42a6027e385c","7","16528","","{""P0_Q0"":null,""ambiguous"":3,""objects"":1,""invisible"":4,""chaos"":2}","","","","","","","","","","","","","","","","","[]","Nearby location of Daiwa Roynet Hotel Tokyo-Osaki (jp_tok-p_htl_a_low2)","ChIJw8m7kPSKGGAREUfz_puYZs4","35.6168084","139.7277241","JP","TOK","PER","HTL","2-chōme-9-4 Ōsaki, Shinagawa City, Tokyo 141-0032, Japan","jp_tok-p_htl_b_low2","90","jp_tok-p_htl_b_low2_90"
"trial","survey","30","477715","0.0-2.0-28.0","5fdca41ecb769722e2266d8a","626166b218b78fee4e9d8d4d","6261813691fa42a6027e385c","7","15888","","{""P0_Q0"":null,""ambiguous"":4,""objects"":1,""invisible"":4,""chaos"":1}","","","","","","","","","","","","","","","","","[]","Nearby location of Graduate Ann Arbor (us_arb_htl_a_high1)","ChIJYetfYhWuPIgRy9Fx8ebdnWE","42.2824654","-83.7429681","US","ARB","ARB","HTL","501 E Ann St, Ann Arbor, MI 48104, USA","us_arb_htl_b_high1","180","us_arb_htl_b_high1_180"
"trial","survey","31","489485","0.0-2.0-29.0","5fdca41ecb769722e2266d8a","626166b218b78fee4e9d8d4d","6261813691fa42a6027e385c","7","11759","","{""P0_Q0"":null,""ambiguous"":5,""objects"":3,""invisible"":5,""chaos"":4}","","","","","","","","","","","","","","","","","[]","Higashi-Asakusa Elementary School","ChIJQ2511u2OGGAR0Tk3tO-VmJw","35.724431","139.798207","JP","TOK","CTR","SCH","2-chōme-27-19 Higashiasakusa, Taito City, Tokyo 111-0025, Japan","jp_tok-c_sch_a_8","90","jp_tok-c_sch_a_8_90"
"trial","survey","32","504768","0.0-2.0-30.0","5fdca41ecb769722e2266d8a","626166b218b78fee4e9d8d4d","6261813691fa42a6027e385c","7","15270","","{""P0_Q0"":null,""ambiguous"":3,""objects"":1,""invisible"":4,""chaos"":1}","","","","","","","","","","","","","","","","","[]","Jittered SV for Nearby location of 須賀谷温泉 (jp_tor_htl_a_high1) (jp_tor_htl_b_high1)","GhIJIiaXtQO6QUARjDUSVwQJYUA","35.4532382","136.2817798","JP","TOR","TOR","HTL","F73J+7P Nagahama, Shiga, Japan","jp_tor_htl_b_high1","270","jp_tor_htl_b_high1_270"
"trial","survey","33","516223","0.0-2.0-31.0","5fdca41ecb769722e2266d8a","626166b218b78fee4e9d8d4d","6261813691fa42a6027e385c","7","11442","","{""P0_Q0"":null,""ambiguous"":5,""objects"":1,""invisible"":5,""chaos"":2}","","","","","","","","","","","","","","","","","[]","Nearby location of Ann Arbor Hills Child Development Center (us_arb_sch_a_1)","ChIJayC39uGuPIgRi68_P3AKb4Y","42.2614403","-83.7036603","US","ARB","ARB","SCH","1620 Glenwood Rd, Ann Arbor, MI 48104, USA","us_arb_sch_b_1","90","us_arb_sch_b_1_90"
"trial","survey","34","528536","0.0-2.0-32.0","5fdca41ecb769722e2266d8a","626166b218b78fee4e9d8d4d","6261813691fa42a6027e385c","7","12301","","{""P0_Q0"":null,""ambiguous"":1,""objects"":2,""invisible"":4,""chaos"":1}","","","","","","","","","","","","","","","","","[]","United States Postal Service","ChIJZSVRGDq7PIgRlo_a8I0Tib8","42.1718067","-83.7735227","US","ARB","ARB","POS","108 N Maple Rd, Saline, MI 48176, USA","us_arb_pos_a_1","0","us_arb_pos_a_1_0"
"trial","survey","35","544740","0.0-2.0-33.0","5fdca41ecb769722e2266d8a","626166b218b78fee4e9d8d4d","6261813691fa42a6027e385c","7","16191","","{""P0_Q0"":null,""ambiguous"":5,""objects"":1,""invisible"":5,""chaos"":1}","","","","","","","","","","","","","","","","","[]","Ann Arbor Hills Child Development Center","ChIJe87tMeKuPIgRVFWuWyeOdBY","42.2629596","-83.7044284","US","ARB","ARB","SCH","2775 Bedford Rd, Ann Arbor, MI 48104, USA","us_arb_sch_a_1","0","us_arb_sch_a_1_0"
"trial","survey","36","560790","0.0-2.0-34.0","5fdca41ecb769722e2266d8a","626166b218b78fee4e9d8d4d","6261813691fa42a6027e385c","7","16035","","{""P0_Q0"":null,""ambiguous"":3,""objects"":1,""invisible"":5,""chaos"":1}","","","","","","","","","","","","","","","","","[]","Mitchell Elementary School","ChIJQYKjOkevPIgRNBcgyKyYsfs","42.2369664","-83.6929474","US","ARB","ARB","SCH","3550 Pittsview Dr, Ann Arbor, MI 48108, USA","us_arb_sch_a_4","270","us_arb_sch_a_4_270"
"half-way","html-button-response","37","568828","0.0-2.0-35.0","5fdca41ecb769722e2266d8a","626166b218b78fee4e9d8d4d","6261813691fa42a6027e385c","7","8036","
            <h3>You are now half way through the study.</h3>
            <p>Please take a quick, 15-second break before you continue.</p>
            <img src='assets/img/countdown-15.gif'>
            <p>The study will automatically advance forward after the countdown is complete. However, you may click ""Next"" to advance forward now if you wish.</p>
        ","0","","","","","","","","","","","","","","","","","","","","","","","","","","","","",""
"attention-check","survey","38","574327","0.0-2.0-36.0","5fdca41ecb769722e2266d8a","626166b218b78fee4e9d8d4d","6261813691fa42a6027e385c","7","5480","","{""P0_Q0"":null,""ambiguous"":null,""objects"":null,""invisible"":null,""chaos"":null}","","","","","","","","","","","","","","","","","[]","","","","","","","","","","","",""
"trial","survey","39","589676","0.0-2.0-37.0","5fdca41ecb769722e2266d8a","626166b218b78fee4e9d8d4d","6261813691fa42a6027e385c","7","15339","","{""P0_Q0"":null,""ambiguous"":3,""objects"":4,""invisible"":3,""chaos"":4}","","","","","","","","","","","","","","","","","[]","Nearby location of United States Postal Service (us_arb_pos_a_2)","ChIJlwkqdc6xPIgREfyzp428070","42.2697109","-83.7737698","US","ARB","ARB","POS","2019 W Stadium Blvd, Ann Arbor, MI 48103, USA","us_arb_pos_b_2","90","us_arb_pos_b_2_90"
"trial","survey","40","607895","0.0-2.0-38.0","5fdca41ecb769722e2266d8a","626166b218b78fee4e9d8d4d","6261813691fa42a6027e385c","7","18208","","{""P0_Q0"":null,""ambiguous"":5,""objects"":2,""invisible"":5,""chaos"":5}","","","","","","","","","","","","","","","","","[]","Nearby location of United States Postal Service (us_nyc-c_pos_a_3)","ChIJpWHPQID2wokRneXgmeORzP4","40.8291253","-73.9375732","US","NYC","CTR","POS","2925 Frederick Douglass Blvd, New York, NY 10039, USA","us_nyc-c_pos_b_3","180","us_nyc-c_pos_b_3_180"
"trial","survey","41","621896","0.0-2.0-39.0","5fdca41ecb769722e2266d8a","626166b218b78fee4e9d8d4d","6261813691fa42a6027e385c","7","13988","","{""P0_Q0"":null,""ambiguous"":1,""objects"":4,""invisible"":4,""chaos"":5}","","","","","","","","","","","","","","","","","[]","Courtyard by Marriott New York Manhattan Fifth Avenue","CYNYCESC","40.75211","-73.98141","US","NYC","CTR","HTL","3 EAST 40TH ST, NEW YORK, NY 10016","us_nyc-c_htl_a_mid2","90","us_nyc-c_htl_a_mid2_90"
"trial","survey","42","630597","0.0-2.0-40.0","5fdca41ecb769722e2266d8a","626166b218b78fee4e9d8d4d","6261813691fa42a6027e385c","7","8687","","{""P0_Q0"":null,""ambiguous"":5,""objects"":3,""invisible"":5,""chaos"":4}","","","","","","","","","","","","","","","","","[]","Nearby location of PS 146 Anna M. Short School (us_nyc-c_sch_a_5)","ChIJ2YTRCqpYwokRoILxg84fVx0","40.788425","-73.9404164","US","NYC","CTR","SCH","416 E 105th St, New York, NY 10029, USA","us_nyc-c_sch_b_5","90","us_nyc-c_sch_b_5_90"
"trial","survey","43","647165","0.0-2.0-41.0","5fdca41ecb769722e2266d8a","626166b218b78fee4e9d8d4d","6261813691fa42a6027e385c","7","16556","","{""P0_Q0"":null,""ambiguous"":3,""objects"":1,""invisible"":5,""chaos"":2}","","","","","","","","","","","","","","","","","[]","Nearby location of Days Inn by Wyndham Ann Arbor (us_arb_htl_a_low2)","ChIJMyKc2S2vPIgRmaoMJQDyUQ0","42.251289","-83.682438","US","ARB","ARB","HTL","2489 Gross Rd, Ann Arbor, MI 48108, USA","us_arb_htl_b_low2","270","us_arb_htl_b_low2_270"
"trial","survey","44","665217","0.0-2.0-42.0","5fdca41ecb769722e2266d8a","626166b218b78fee4e9d8d4d","6261813691fa42a6027e385c","7","18038","","{""P0_Q0"":null,""ambiguous"":1,""objects"":4,""invisible"":3,""chaos"":1}","","","","","","","","","","","","","","","","","[]","Nearby location of United States Postal Service (us_nyc-c_pos_a_7)","ChIJjVTn2xD2wokRxjWBnF0UGVg","40.8023565","-73.9528115","US","NYC","CTR","POS","113 St Nicholas Ave, New York, NY 10026, USA","us_nyc-c_pos_b_7","270","us_nyc-c_pos_b_7_270"
"trial","survey","45","680935","0.0-2.0-43.0","5fdca41ecb769722e2266d8a","626166b218b78fee4e9d8d4d","6261813691fa42a6027e385c","7","15709","","{""P0_Q0"":null,""ambiguous"":1,""objects"":2,""invisible"":4,""chaos"":1}","","","","","","","","","","","","","","","","","[]","Comfort Inn","ChIJ-4dsD7jOPIgR_03DSz1SKuQ","42.2976226","-84.0277709","US","CHL","CHL","HTL","1645 Commerce Park Dr, Chelsea, MI 48118, USA","us_chl_htl_a_low1","0","us_chl_htl_a_low1_0"
"trial","survey","46","706621","0.0-2.0-44.0","5fdca41ecb769722e2266d8a","626166b218b78fee4e9d8d4d","6261813691fa42a6027e385c","7","25674","","{""P0_Q0"":null,""ambiguous"":4,""objects"":1,""invisible"":5,""chaos"":1}","","","","","","","","","","","","","","","","","[]","Nearby location of Setagaya Okamoto Post Office (jp_tok-p_pos_a_1)","ChIJAVgBafjzGGAR0HytC8xomug","35.6274419","139.618016","JP","TOK","PER","POS","1-chōme-37-3 Okamoto, Setagaya City, Tokyo 157-0076, Japan","jp_tok-p_pos_b_1","0","jp_tok-p_pos_b_1_0"
"trial","survey","47","719907","0.0-2.0-45.0","5fdca41ecb769722e2266d8a","626166b218b78fee4e9d8d4d","6261813691fa42a6027e385c","7","13270","","{""P0_Q0"":null,""ambiguous"":4,""objects"":3,""invisible"":5,""chaos"":4}","","","","","","","","","","","","","","","","","[]","Daiwa Roynet Hotel Tokyo-Osaki","HSTYOAIZ","35.61815","139.72674","JP","TOK","PER","HTL","2-1-3, OSAKI, TOKYO 141-0032","jp_tok-p_htl_a_low2","180","jp_tok-p_htl_a_low2_180"
"trial","survey","48","730807","0.0-2.0-46.0","5fdca41ecb769722e2266d8a","626166b218b78fee4e9d8d4d","6261813691fa42a6027e385c","7","10883","","{""P0_Q0"":null,""ambiguous"":1,""objects"":2,""invisible"":4,""chaos"":3}","","","","","","","","","","","","","","","","","[]","Nearby location of Kanponoyado Hikone (jp_hik_htl_a_mid1)","ChIJ52LxtyYrAmARRzLfR851uZY","35.2879027","136.2510942","JP","HIK","HIK","HTL","1090 Matsubarachō, Hikone, Shiga 522-0002, Japan","jp_hik_htl_b_mid1","180","jp_hik_htl_b_mid1_180"
"trial","survey","49","743793","0.0-2.0-47.0","5fdca41ecb769722e2266d8a","626166b218b78fee4e9d8d4d","6261813691fa42a6027e385c","7","12974","","{""P0_Q0"":null,""ambiguous"":4,""objects"":2,""invisible"":5,""chaos"":2}","","","","","","","","","","","","","","","","","[]","Nearby location of Baymont by Wyndham Chelsea (us_chl_htl_a_mid1)","ChIJPR5PbrjOPIgRniUqQCWoPWs","42.298341","-84.0291029","US","CHL","CHL","HTL","1620 Commerce Park Dr suite 100, Chelsea, MI 48118, USA","us_chl_htl_b_mid1","0","us_chl_htl_b_mid1_0"
"trial","survey","50","755459","0.0-2.0-48.0","5fdca41ecb769722e2266d8a","626166b218b78fee4e9d8d4d","6261813691fa42a6027e385c","7","11654","","{""P0_Q0"":null,""ambiguous"":5,""objects"":1,""invisible"":5,""chaos"":2}","","","","","","","","","","","","","","","","","[]","Kirihara Higashi Elementary School","ChIJpavbTi56AWARRkSsYgXqutM","35.122484","136.087719","JP","HIK","HIK","SCH","175 Tsuchidachō, Omihachiman, Shiga 523-0082, Japan","jp_hik_sch_a_2","270","jp_hik_sch_a_2_270"
"trial","survey","51","771527","0.0-2.0-49.0","5fdca41ecb769722e2266d8a","626166b218b78fee4e9d8d4d","6261813691fa42a6027e385c","7","16057","","{""P0_Q0"":null,""ambiguous"":4,""objects"":5,""invisible"":4,""chaos"":5}","","","","","","","","","","","","","","","","","[]","Hilton Garden Inn New York/Manhattan-Midtown East","GILGA964","40.75658","-73.96944","US","NYC","CTR","HTL","206 EAST 52ND STREET, NEW YORK, NY 10022","us_nyc-c_htl_a_low2","180","us_nyc-c_htl_a_low2_180"
"trial","survey","52","794047","0.0-2.0-50.0","5fdca41ecb769722e2266d8a","626166b218b78fee4e9d8d4d","6261813691fa42a6027e385c","7","22507","","{""P0_Q0"":null,""ambiguous"":1,""objects"":3,""invisible"":3,""chaos"":1}","","","","","","","","","","","","","","","","","[]","Tsukishima 2nd Elementary School","ChIJU0n9-HyJGGARNQSXKv-kIIY","35.6602474","139.7758266","JP","TOK","CTR","SCH","1-chōme-12-2 Kachidoki, Chuo City, Tokyo 104-0054, Japan","jp_tok-c_sch_a_3","270","jp_tok-c_sch_a_3_270"
"trial","survey","53","811615","0.0-2.0-51.0","5fdca41ecb769722e2266d8a","626166b218b78fee4e9d8d4d","6261813691fa42a6027e385c","7","17555","","{""P0_Q0"":null,""ambiguous"":5,""objects"":1,""invisible"":5,""chaos"":3}","","","","","","","","","","","","","","","","","[]","P.S. 153 Adam Clayton Powell","ChIJzzGA13z2wokRATSY11DeEH8","40.826491","-73.9475211","US","NYC","CTR","SCH","1750 Amsterdam Ave, New York, NY 10031, USA","us_nyc-c_sch_a_3","180","us_nyc-c_sch_a_3_180"
"trial","survey","54","821447","0.0-2.0-52.0","5fdca41ecb769722e2266d8a","626166b218b78fee4e9d8d4d","6261813691fa42a6027e385c","7","9819","","{""P0_Q0"":null,""ambiguous"":5,""objects"":2,""invisible"":5,""chaos"":2}","","","","","","","","","","","","","","","","","[]","Hotel Route-Inn Nagahama Inter","ChIJmQLsstAuAmARAC8tYd9WWwc","35.3970578","136.2947216","JP","TOR","TOR","HTL","Japan, 〒526-0804 Shiga, Nagahama, Kanōchō, 字上角田884-1","jp_tor_htl_a_low1","0","jp_tor_htl_a_low1_0"
"trial","survey","55","832751","0.0-2.0-53.0","5fdca41ecb769722e2266d8a","626166b218b78fee4e9d8d4d","6261813691fa42a6027e385c","7","11292","","{""P0_Q0"":null,""ambiguous"":3,""objects"":5,""invisible"":4,""chaos"":3}","","","","","","","","","","","","","","","","","[]","Nearby location of Nerima Sakuradai Post Office (jp_tok-p_pos_a_5)","ChIJlUrhPw3tGGARYz3NEa-AcSY","35.7359141","139.6591792","JP","TOK","PER","POS","Japan, 〒176-0012 Tokyo, Nerima City, Toyotamakita, 4-chōme−12−６ 岡野マンション","jp_tok-p_pos_b_5","0","jp_tok-p_pos_b_5_0"
"trial","survey","56","843835","0.0-2.0-54.0","5fdca41ecb769722e2266d8a","626166b218b78fee4e9d8d4d","6261813691fa42a6027e385c","7","11072","","{""P0_Q0"":null,""ambiguous"":5,""objects"":3,""invisible"":5,""chaos"":4}","","","","","","","","","","","","","","","","","[]","Nearby location of Jingūmae 6 Post Office (jp_tok-c_pos_a_2)","ChIJo2FXfqaMGGARaHWKnjoqihY","35.665387","139.7037685","JP","TOK","CTR","POS","6-chōme-16-6 Jingūmae, Shibuya City, Tokyo 150-0001, Japan","jp_tok-c_pos_b_2","0","jp_tok-c_pos_b_2_0"
"trial","survey","57","855020","0.0-2.0-55.0","5fdca41ecb769722e2266d8a","626166b218b78fee4e9d8d4d","6261813691fa42a6027e385c","7","11114","","{""P0_Q0"":null,""ambiguous"":5,""objects"":4,""invisible"":5,""chaos"":5}","","","","","","","","","","","","","","","","","[]","The Westin Tokyo","WITYOTOK","35.64174","139.71551","JP","TOK","PER","HTL","1 4 1 MITA MEGURO KU, TOKYO 1538580","jp_tok-p_htl_a_high2","90","jp_tok-p_htl_a_high2_90"
"trial","survey","58","862926","0.0-2.0-56.0","5fdca41ecb769722e2266d8a","626166b218b78fee4e9d8d4d","6261813691fa42a6027e385c","7","7890","","{""P0_Q0"":null,""ambiguous"":5,""objects"":4,""invisible"":5,""chaos"":4}","","","","","","","","","","","","","","","","","[]","Nearby location of Tsukishima 2nd Elementary School (jp_tok-c_sch_a_3)","ChIJHxLhHn2JGGARc3bs4ikCKls","35.660785","139.775206","JP","TOK","CTR","SCH","1-chōme-13-13-1 Kachidoki, Chuo City, Tokyo 104-0054, Japan","jp_tok-c_sch_b_3","90","jp_tok-c_sch_b_3_90"
"trial","survey","59","872596","0.0-2.0-57.0","5fdca41ecb769722e2266d8a","626166b218b78fee4e9d8d4d","6261813691fa42a6027e385c","7","9659","","{""P0_Q0"":null,""ambiguous"":5,""objects"":3,""invisible"":5,""chaos"":4}","","","","","","","","","","","","","","","","","[]","Mukaihara Elementary School","ChIJr51ciUjtGGARi9CcLnWMRwg","35.7416333","139.6818636","JP","TOK","PER","SCH","2-chōme-34-1 Mukaihara, Itabashi City, Tokyo 173-0036, Japan","jp_tok-p_sch_a_4","90","jp_tok-p_sch_a_4_90"
"trial","survey","60","883193","0.0-2.0-58.0","5fdca41ecb769722e2266d8a","626166b218b78fee4e9d8d4d","6261813691fa42a6027e385c","7","10582","","{""P0_Q0"":null,""ambiguous"":3,""objects"":3,""invisible"":5,""chaos"":2}","","","","","","","","","","","","","","","","","[]","Guidepost Montessori at Museum Mile","ChIJM_EqNF5ZwokRqGSOTYl-ARs","40.7764017","-73.9629479","US","NYC","CTR","SCH","12 E 79th St, New York, NY 10075, USA","us_nyc-c_sch_a_7","180","us_nyc-c_sch_a_7_180"
"trial","survey","61","895848","0.0-2.0-59.0","5fdca41ecb769722e2266d8a","626166b218b78fee4e9d8d4d","6261813691fa42a6027e385c","7","12645","","{""P0_Q0"":null,""ambiguous"":4,""objects"":5,""invisible"":5,""chaos"":2}","","","","","","","","","","","","","","","","","[]","Nearby location of The Williamsburg Hotel (us_nyc-p_htl_a_high1)","ChIJH00_Y11ZwokR19006V8VF7Q","40.7203468","-73.9589785","US","NYC","PER","HTL","84 N 9th St, Brooklyn, NY 11249, USA","us_nyc-p_htl_b_high1","0","us_nyc-p_htl_b_high1_0"
"trial","survey","62","908913","0.0-2.0-60.0","5fdca41ecb769722e2266d8a","626166b218b78fee4e9d8d4d","6261813691fa42a6027e385c","7","13054","","{""P0_Q0"":null,""ambiguous"":5,""objects"":2,""invisible"":4,""chaos"":3}","","","","","","","","","","","","","","","","","[]","Comfort Inn JFK Airport","CINYC672","40.66585","-73.80762","US","NYC","PER","HTL","132-15 NASSAU EXPRESSWAY, JAMAICA, NY 11430","us_nyc-p_htl_a_low2","270","us_nyc-p_htl_a_low2_270"
"trial","survey","63","927126","0.0-2.0-61.0","5fdca41ecb769722e2266d8a","626166b218b78fee4e9d8d4d","6261813691fa42a6027e385c","7","18200","","{""P0_Q0"":null,""ambiguous"":4,""objects"":4,""invisible"":4,""chaos"":3}","","","","","","","","","","","","","","","","","[]","豊島区立朝日小学校 ひいらぎ学級","ChIJtauqIoKNGGARrjSxFT4oZHo","35.741097","139.73295","JP","TOK","CTR","SCH","Japan, 〒170-0002 Tokyo, Toshima City, Sugamo, 5-chōme−33−１ 豊島区立朝日小学校","jp_tok-c_sch_a_2","270","jp_tok-c_sch_a_2_270"
"trial","survey","64","938282","0.0-2.0-62.0","5fdca41ecb769722e2266d8a","626166b218b78fee4e9d8d4d","6261813691fa42a6027e385c","7","11141","","{""P0_Q0"":null,""ambiguous"":2,""objects"":1,""invisible"":5,""chaos"":3}","","","","","","","","","","","","","","","","","[]","Ann Arbor Hills Child Development Center","ChIJe87tMeKuPIgRVFWuWyeOdBY","42.2629596","-83.7044284","US","ARB","ARB","SCH","2775 Bedford Rd, Ann Arbor, MI 48104, USA","us_arb_sch_a_1","180","us_arb_sch_a_1_180"
"trial","survey","65","948635","0.0-2.0-63.0","5fdca41ecb769722e2266d8a","626166b218b78fee4e9d8d4d","6261813691fa42a6027e385c","7","10343","","{""P0_Q0"":null,""ambiguous"":1,""objects"":1,""invisible"":3,""chaos"":1}","","","","","","","","","","","","","","","","","[]","Mitchell Elementary School","ChIJQYKjOkevPIgRNBcgyKyYsfs","42.2369664","-83.6929474","US","ARB","ARB","SCH","3550 Pittsview Dr, Ann Arbor, MI 48108, USA","us_arb_sch_a_4","180","us_arb_sch_a_4_180"
"trial","survey","66","960902","0.0-2.0-64.0","5fdca41ecb769722e2266d8a","626166b218b78fee4e9d8d4d","6261813691fa42a6027e385c","7","12255","","{""P0_Q0"":null,""ambiguous"":1,""objects"":4,""invisible"":3,""chaos"":2}","","","","","","","","","","","","","","","","","[]","Nearby location of HOTEL ALLAMANDA AOYAMA (jp_tok-c_htl_a_high1)","ChIJBeIIXpyMGGARp8F4yBa84pg","35.6704599","139.7189166","JP","TOK","CTR","HTL","2-chōme-22-14 Minamiaoyama, Minato City, Tokyo 107-0062, Japan","jp_tok-c_htl_b_high1","90","jp_tok-c_htl_b_high1_90"
"trial","survey","67","971537","0.0-2.0-65.0","5fdca41ecb769722e2266d8a","626166b218b78fee4e9d8d4d","6261813691fa42a6027e385c","7","10623","","{""P0_Q0"":null,""ambiguous"":5,""objects"":5,""invisible"":5,""chaos"":5}","","","","","","","","","","","","","","","","","[]","Nearby location of 豊島区立朝日小学校 ひいらぎ学級 (jp_tok-c_sch_a_2)","ChIJsX5PhoGNGGARkg3BIt6IYKg","35.7421166","139.7340459","JP","TOK","CTR","SCH","4-chōme-57-10 Nishigahara, Kita City, Tokyo 114-0024, Japan","jp_tok-c_sch_b_2","270","jp_tok-c_sch_b_2_270"
"trial","survey","68","983671","0.0-2.0-66.0","5fdca41ecb769722e2266d8a","626166b218b78fee4e9d8d4d","6261813691fa42a6027e385c","7","12123","","{""P0_Q0"":null,""ambiguous"":1,""objects"":1,""invisible"":5,""chaos"":1}","","","","","","","","","","","","","","","","","[]","Nearby location of Torahime Post Office (jp_tor_pos_a_1)","ChIJgxpx9J4oAmARIkc4T1H6KS0","35.420504","136.263204","JP","TOR","TOR","POS","171-3 Gomura, Nagahama, Shiga 529-0141, Japan","jp_tor_pos_b_1","90","jp_tor_pos_b_1_90"
"trial","survey","69","1005325","0.0-2.0-67.0","5fdca41ecb769722e2266d8a","626166b218b78fee4e9d8d4d","6261813691fa42a6027e385c","7","21640","","{""P0_Q0"":null,""ambiguous"":5,""objects"":5,""invisible"":5,""chaos"":3}","","","","","","","","","","","","","","","","","[]","Nearby location of Aijitsu Elementary School (jp_tok-c_sch_a_5)","ChIJn0gJcliMGGARx62E3ARcjRI","35.6987116","139.7326211","JP","TOK","CTR","SCH","2-8 Saikumachi, Shinjuku City, Tokyo 162-0838, Japan","jp_tok-c_sch_b_5","0","jp_tok-c_sch_b_5_0"
"demographics","survey-html-form","70","1012262","0.0-2.0-68.0","5fdca41ecb769722e2266d8a","626166b218b78fee4e9d8d4d","6261813691fa42a6027e385c","7","6934","","{""age"":""56"",""gender"":""female"",""gender-self-describe"":"""",""zipcode"":""97814""}","","","","","","","","","","","","","","","","","","","","","","","","","","","","",""
"demographics","survey","71","1017681","0.0-2.0-69.0","5fdca41ecb769722e2266d8a","626166b218b78fee4e9d8d4d","6261813691fa42a6027e385c","7","5398","","{""P0_Q0"":null,""outsideUS"":""No"",""outsideUS_years"":""""}","","","","","","","","","","","","","","","","","[]","","","","","","","","","","","",""
"end-survey","survey-text","72","1022095","0.0-2.0-70.0","5fdca41ecb769722e2266d8a","626166b218b78fee4e9d8d4d","6261813691fa42a6027e385c","7","4407","","{""Q0"":""""}","","","","","","","","","","","","","","","","","","","","","","","","","","","","",""
