"task","trial_type","trial_index","time_elapsed","internal_node_id","subject_id","study_id","session_id","group","rt","stimulus","response","width","height","webaudio","browser","browser_version","mobile","os","fullscreen","vsync_rate","webcam","microphone","success","timeout","failed_images","failed_audio","failed_video","accuracy","name","place_id","lat","lng","culture","loc1","loc2","loct","address","loc_id_prev","angle","loc_id"
"pavlovia-init","pavlovia","0","980","0.0-0.0","615dd3b5525a10ed194dd7b1","625e209c10a247530e1c6964","625ee383647fe31ca50c9788","12","","","","","","","","","","","","","","","","","","","","","","","","","","","","","","","",""
"consent","html-button-response","1","8463","0.0-1.0","615dd3b5525a10ed194dd7b1","625e209c10a247530e1c6964","625ee383647fe31ca50c9788","12","7482","
        <div style=""font-size: 80%; max-width:700px"">
            <h2>Informed Consent</h2><br>
        
            <div style=""text-align: left"">
            <h3>Streetscape Perceptions</h3>
            <b>HUM00189138</b>
            <br><hr>
        
            <h4>DESCRIPTION</h4>
            <p>
                In this study, you will view Google Street View images. You will then answer questions about your impressions of the streetscapes presented in those images.
            </p><br>
        
            <h4>TIME INVOLVEMENT</h4>
            <p>Your participation will take approximately 30 minutes.</p><br>
        
            <h4>RISKS AND BENEFITS</h4>
            <p>
                The risks associated with this study are minimal. The benefits which may reasonably be expected to result from this study are none.  We cannot and do not guarantee or promise that you will receive any benefits from this study. 
            </p><br>
        
            <h4>PAYMENTS</h4>
            <p>You will be paid <b>$5.00</b> for your participation.</p><br>
        
            <h4>SUBJECT'S RIGHTS</h4>
            <p>
                If you have read this form and have decided to participate in this project, please understand your participation is voluntary and you have the right to withdraw your consent or discontinue participation at any time without penalty or loss of benefits to which you are otherwise entitled.  The alternative is not to participate.  You have the right to refuse to answer particular questions.  
            </p>
        
            <p>
                Your individual privacy will be maintained in all published and written data resulting from the study. Your responses will be kept confidential: you are given a participant code, and no one, not even the research team, can match that code with your identity. Your collected information may also be shared with other researchers as part of our dataset.
            </p><br>
        
            <h4>CONTACT INFORMATION</h4>
            <p>
                Questions: If you have any questions, concerns or complaints about this research, its procedures, risks and benefits, contact the Protocol Director, Nicholas Camp, npcamp@umich.edu, (443) 851-6783.
            </p>
        
            <p>
                If you have questions about your rights as a research participant, or wish to obtain information, ask questions or discuss any concerns about this study with someone other than the researcher(s), please contact the following:
                <br><br>
        
                University of Michigan<br>
                Health Sciences and Behavioral Sciences Institutional Review Board
                (IRB-HSBS)<br>
                2800 Plymouth Road <br>
                Building 520, Room 1169 <br>
                Ann Arbor, MI 48109-2800 <br>
                Telephone: 734-936-0933 or toll free (866) 936-0933 <br>
                Fax: 734-936-1852 <br />
                E-mail: irbhsbs@umich.edu <br>
            </p>
        
            <p>
                You can also contact the University of Michigan Compliance Hotline at 1-866-990-0111. You may also print this consent form to keep.
            </p>
            <br>
        
            <div class=""alert alert-warning""><b>
                Do you consent to participate in this study? If you consent to participate in this study, please click “Accept and continue.”
            </b></div>
            </div>
        </div>
    ","1","","","","","","","","","","","","","","","","","","","","","","","","","","","","",""
"browser-check","browser-check","2","9456","0.0-2.0-0.0","615dd3b5525a10ed194dd7b1","625e209c10a247530e1c6964","625ee383647fe31ca50c9788","12","","","","1440","757","true","chrome","100.0.4896","false","Windows 10","true","60.64","false","false","","","","","","","","","","","","","","","","","",""
"","preload","3","12660","0.0-2.0-1.0","615dd3b5525a10ed194dd7b1","625e209c10a247530e1c6964","625ee383647fe31ca50c9788","12","","","","","","","","","","","","","","","true","false","[]","[]","[]","","","","","","","","","","","","",""
"instructions","html-button-response","4","16639","0.0-2.0-2.0","615dd3b5525a10ed194dd7b1","625e209c10a247530e1c6964","625ee383647fe31ca50c9788","12","3978","
        <div class=""text-container"">
            <h1>Welcome to the study!</h1>
            
            <div class=""text-left"">
                <p>
                    In this study, we are interested in how people think about different Google Street View images. Google Street View takes pictures of streets used for Google Earth and Google Maps. You’ll see Google Street View images of different places and answer some questions about each one.
                </p>
            </div>
            
            <img src='
            https://maps.googleapis.com/maps/api/streetview?size=640x320
            &location=37.783631,-122.432766
            &heading=80
            &pitch=2
            &fov=100
            &radius=150
            &key=AIzaSyC2OxRDg6qlzZDj7j0UAD2XyE0qWokLvvs
            &source=outdoor'>
        
            <br>
        <br>
    ","0","","","","","","","","","","","","","","","","","","","","","","","","","","","","",""
"instructions","html-button-response","5","26598","0.0-2.0-3.0","615dd3b5525a10ed194dd7b1","625e209c10a247530e1c6964","625ee383647fe31ca50c9788","12","9658","
        <style>
            img.small {
            max-width: 100px;
            }
            li {
            text-indent: 40px;
            }
        </style>

        <div class=""text-container text-left"">
            <p>For each picture, we’d like your impressions of the scene:</p>
            
            <hr>
                Are there <b>clear, distinct boundaries</b> between objects in the scene, or are the <b>boundaries ambiguous or unclear</b>?
                
                <li>clear, distinct boundaries: <img class=""small"" src=""assets/img/ambiguous-low.png""></li>
                <li>ambiguous or unclear boundaries: <img class=""small"" src=""assets/img/ambiguous-high.png""></li>
            <hr>
            <br>
                Are there <b>only a few different objects</b> in the scene, or is there <b>a large number</b>?
            <br><br>
            <hr>
                Are only <b>a few parts</b> of the scene <b>invisible or obscured</b>, or are <b>many parts invisible or obscured</b>?
                
                <li>a few parts invisible or obscured: <img class=""small"" src=""assets/img/invisible-low.png""></li>
                <li>many parts invisible or obscured: <img class=""small"" src=""assets/img/invisible-high.png""></li>
            <hr>
            <br>
                Does the scene look <b>organized</b> or <b>chaotic</b> to you?
            <br><br>
            <hr>
            
            <p>
                There are no right or wrong answers: we are interested in <b>your</b> impression. Note that some images might have individual buildings or faces blurred for privacy. Please ignore these when making your judgments.
            </p>
        </div>
        <br>
    ","0","","","","","","","","","","","","","","","","","","","","","","","","","","","","",""
"instructions","html-button-response","6","28079","0.0-2.0-4.0","615dd3b5525a10ed194dd7b1","625e209c10a247530e1c6964","625ee383647fe31ca50c9788","12","1479","
        <div class=""text-container text-left"">
            <p>Please make sure you are doing this study in an area where you can focus and complete the survey in one sitting.</p>

            <p>Don’t spend too much time on any one picture, and, again go with your gut impression!</p>
            
            <p>The study should take about 30 minutes. We’ll let you know when you’re halfway through.</p>
        </div>
            
        <h3>Ready? Click next to get started!</h3>
        <br>
    ","0","","","","","","","","","","","","","","","","","","","","","","","","","","","","",""
"trial","survey","7","65646","0.0-2.0-5.0","615dd3b5525a10ed194dd7b1","625e209c10a247530e1c6964","625ee383647fe31ca50c9788","12","37521","","{""P0_Q0"":null,""ambiguous"":4,""objects"":4,""invisible"":4,""chaos"":1}","","","","","","","","","","","","","","","","","[]","Tsukishima 2nd Elementary School","ChIJU0n9-HyJGGARNQSXKv-kIIY","35.6602474","139.7758266","JP","TOK","CTR","SCH","1-chōme-12-2 Kachidoki, Chuo City, Tokyo 104-0054, Japan","jp_tok-c_sch_a_3","0","jp_tok-c_sch_a_3_0"
"trial","survey","8","79888","0.0-2.0-6.0","615dd3b5525a10ed194dd7b1","625e209c10a247530e1c6964","625ee383647fe31ca50c9788","12","14226","","{""P0_Q0"":null,""ambiguous"":5,""objects"":5,""invisible"":5,""chaos"":5}","","","","","","","","","","","","","","","","","[]","Nearby location of Wave Preparatory Elementary School (us_nyc-p_sch_a_4)","ChIJTRYCJ69owokRpkzkKnXhZN4","40.5983625","-73.7567706","US","NYC","PER","SCH","4-16 Beach 22nd St, Far Rockaway, NY 11691, USA","us_nyc-p_sch_b_4","270","us_nyc-p_sch_b_4_270"
"trial","survey","9","102239","0.0-2.0-7.0","615dd3b5525a10ed194dd7b1","625e209c10a247530e1c6964","625ee383647fe31ca50c9788","12","22339","","{""P0_Q0"":null,""ambiguous"":2,""objects"":4,""invisible"":2,""chaos"":2}","","","","","","","","","","","","","","","","","[]","Nearby location of Rakuten STAY HOUSE×WILLSTYLE 八幡堀 (jp_hik_htl_a_high1)","ChIJ-fEvCXl5AWAR8xruOW8CYd0","35.1408592","136.0976484","JP","HIK","HIK","HTL","485-9 Tagachō, Omihachiman, Shiga 523-0821, Japan","jp_hik_htl_b_high1","0","jp_hik_htl_b_high1_0"
"trial","survey","10","115791","0.0-2.0-8.0","615dd3b5525a10ed194dd7b1","625e209c10a247530e1c6964","625ee383647fe31ca50c9788","12","13542","","{""P0_Q0"":null,""ambiguous"":5,""objects"":4,""invisible"":4,""chaos"":4}","","","","","","","","","","","","","","","","","[]","Nearby location of Best Western Plus Arena Hotel (us_nyc-p_htl_a_low1)","ChIJszayzJpbwokR1Pc20klCR2Y","40.679297","-73.947757","US","NYC","PER","HTL","170 Herkimer St, Brooklyn, NY 11216, USA","us_nyc-p_htl_b_low1","0","us_nyc-p_htl_b_low1_0"
"trial","survey","11","129056","0.0-2.0-9.0","615dd3b5525a10ed194dd7b1","625e209c10a247530e1c6964","625ee383647fe31ca50c9788","12","13252","","{""P0_Q0"":null,""ambiguous"":5,""objects"":5,""invisible"":5,""chaos"":2}","","","","","","","","","","","","","","","","","[]","Jittered SV for Nearby location of 須賀谷温泉 (jp_tor_htl_a_high1) (jp_tor_htl_b_high1)","GhIJIiaXtQO6QUARjDUSVwQJYUA","35.4532382","136.2817798","JP","TOR","TOR","HTL","F73J+7P Nagahama, Shiga, Japan","jp_tor_htl_b_high1","90","jp_tor_htl_b_high1_90"
"trial","survey","12","141135","0.0-2.0-10.0","615dd3b5525a10ed194dd7b1","625e209c10a247530e1c6964","625ee383647fe31ca50c9788","12","12068","","{""P0_Q0"":null,""ambiguous"":5,""objects"":5,""invisible"":4,""chaos"":5}","","","","","","","","","","","","","","","","","[]","Nearby location of Nakano Sun Cuore Post Office (jp_tok-p_pos_a_2)","ChIJ_6f_XpryGGARylU0pXEPcbM","35.7102066","139.6632353","JP","TOK","PER","POS","2-chōme-30-7 Arai, Nakano City, Tokyo 165-0026, Japan","jp_tok-p_pos_b_2","0","jp_tok-p_pos_b_2_0"
"trial","survey","13","161415","0.0-2.0-11.0","615dd3b5525a10ed194dd7b1","625e209c10a247530e1c6964","625ee383647fe31ca50c9788","12","20271","","{""P0_Q0"":null,""ambiguous"":5,""objects"":5,""invisible"":3,""chaos"":4}","","","","","","","","","","","","","","","","","[]","William O'Shea Campus","ChIJ2WLCL4lYwokRRLWnWyx-j_M","40.7810152","-73.9779047","US","NYC","CTR","SCH","100 W 77th St, New York, NY 10024, USA","us_nyc-c_sch_a_6","270","us_nyc-c_sch_a_6_270"
"trial","survey","14","182799","0.0-2.0-12.0","615dd3b5525a10ed194dd7b1","625e209c10a247530e1c6964","625ee383647fe31ca50c9788","12","21373","","{""P0_Q0"":null,""ambiguous"":3,""objects"":3,""invisible"":2,""chaos"":3}","","","","","","","","","","","","","","","","","[]","PS 146 Anna M. Short School","ChIJtwKR6hz2wokRPs0Ro5kWXS0","40.7897123","-73.9393805","US","NYC","CTR","SCH","421 E 106th St #4896, New York, NY 10029, USA","us_nyc-c_sch_a_5","90","us_nyc-c_sch_a_5_90"
"trial","survey","15","198270","0.0-2.0-13.0","615dd3b5525a10ed194dd7b1","625e209c10a247530e1c6964","625ee383647fe31ca50c9788","12","15459","","{""P0_Q0"":null,""ambiguous"":2,""objects"":2,""invisible"":2,""chaos"":1}","","","","","","","","","","","","","","","","","[]","Nearby location of United States Postal Service (us_nyc-c_pos_a_7)","ChIJjVTn2xD2wokRxjWBnF0UGVg","40.8023565","-73.9528115","US","NYC","CTR","POS","113 St Nicholas Ave, New York, NY 10026, USA","us_nyc-c_pos_b_7","180","us_nyc-c_pos_b_7_180"
"trial","survey","16","215343","0.0-2.0-14.0","615dd3b5525a10ed194dd7b1","625e209c10a247530e1c6964","625ee383647fe31ca50c9788","12","17064","","{""P0_Q0"":null,""ambiguous"":5,""objects"":3,""invisible"":3,""chaos"":3}","","","","","","","","","","","","","","","","","[]","Tokyo High Court Post Office","ChIJ8YHhS_OLGGARiMJcBz0Ip60","35.6752316","139.753074","JP","TOK","CTR","POS","1-chōme-1-4 Kasumigaseki, Chiyoda City, Tokyo 100-0013, Japan","jp_tok-c_pos_a_1","90","jp_tok-c_pos_a_1_90"
"trial","survey","17","222894","0.0-2.0-15.0","615dd3b5525a10ed194dd7b1","625e209c10a247530e1c6964","625ee383647fe31ca50c9788","12","7540","","{""P0_Q0"":null,""ambiguous"":5,""objects"":5,""invisible"":5,""chaos"":5}","","","","","","","","","","","","","","","","","[]","Nearby location of United States Postal Service (us_nyc-c_pos_a_2)","ChIJtTVWPTz2wokR67Bcx4reZLs","40.8061808","-73.963843","US","NYC","CTR","POS","540 W 114th St, New York, NY 10025, USA","us_nyc-c_pos_b_2","0","us_nyc-c_pos_b_2_0"
"trial","survey","18","227998","0.0-2.0-16.0","615dd3b5525a10ed194dd7b1","625e209c10a247530e1c6964","625ee383647fe31ca50c9788","12","5094","","{""P0_Q0"":null,""ambiguous"":5,""objects"":5,""invisible"":5,""chaos"":5}","","","","","","","","","","","","","","","","","[]","Higashi-Asakusa Elementary School","ChIJQ2511u2OGGAR0Tk3tO-VmJw","35.724431","139.798207","JP","TOK","CTR","SCH","2-chōme-27-19 Higashiasakusa, Taito City, Tokyo 111-0025, Japan","jp_tok-c_sch_a_8","90","jp_tok-c_sch_a_8_90"
"trial","survey","19","239318","0.0-2.0-17.0","615dd3b5525a10ed194dd7b1","625e209c10a247530e1c6964","625ee383647fe31ca50c9788","12","11310","","{""P0_Q0"":null,""ambiguous"":4,""objects"":3,""invisible"":3,""chaos"":4}","","","","","","","","","","","","","","","","","[]","Rakuten STAY HOUSE×WILLSTYLE 八幡堀","ChIJ29I3jA95AWAR_5xuRG3klyw","35.1418554","136.0963056","JP","HIK","HIK","HTL","580-6 Tagachō, Omihachiman, Shiga 523-0821, Japan","jp_hik_htl_a_high1","0","jp_hik_htl_a_high1_0"
"trial","survey","20","270542","0.0-2.0-18.0","615dd3b5525a10ed194dd7b1","625e209c10a247530e1c6964","625ee383647fe31ca50c9788","12","31214","","{""P0_Q0"":null,""ambiguous"":2,""objects"":1,""invisible"":2,""chaos"":1}","","","","","","","","","","","","","","","","","[]","Nearby location of Hotel Route-Inn Nagahama Inter (us_chl_htl_a_low1)","ChIJ64OtwtAuAmARNDquDmxOjLw","35.3955527","136.2935564","JP","TOR","TOR","HTL","66 Yamashinachō, Nagahama, Shiga 526-0847, Japan","jp_tor_htl_b_low1","90","jp_tor_htl_b_low1_90"
"trial","survey","21","282135","0.0-2.0-19.0","615dd3b5525a10ed194dd7b1","625e209c10a247530e1c6964","625ee383647fe31ca50c9788","12","11584","","{""P0_Q0"":null,""ambiguous"":5,""objects"":4,""invisible"":4,""chaos"":3}","","","","","","","","","","","","","","","","","[]","Nearby location of Kirihara Higashi Elementary School (jp_hik_sch_a_2)","ChIJ44W9Gy96AWARDa0LDoFiGi8","35.1236331","136.0869352","JP","HIK","HIK","SCH","1379 Tsuchidachō, Omihachiman, Shiga 523-0082, Japan","jp_hik_sch_b_2","0","jp_hik_sch_b_2_0"
"trial","survey","22","291838","0.0-2.0-20.0","615dd3b5525a10ed194dd7b1","625e209c10a247530e1c6964","625ee383647fe31ca50c9788","12","9693","","{""P0_Q0"":null,""ambiguous"":3,""objects"":3,""invisible"":3,""chaos"":3}","","","","","","","","","","","","","","","","","[]","Nearby location of THOMPSON CENTRAL PARK - NEW YORK (us_nyc-c_htl_a_high2)","ChIJO4JkSfdYwokRIlgrbHiZhtk","40.7652312","-73.9775167","US","NYC","CTR","HTL","116 W 58th St, New York, NY 10019, USA","us_nyc-c_htl_b_high2","180","us_nyc-c_htl_b_high2_180"
"trial","survey","23","304189","0.0-2.0-21.0","615dd3b5525a10ed194dd7b1","625e209c10a247530e1c6964","625ee383647fe31ca50c9788","12","12341","","{""P0_Q0"":null,""ambiguous"":4,""objects"":4,""invisible"":5,""chaos"":2}","","","","","","","","","","","","","","","","","[]","Nearby location of Léman Manhattan Preparatory School (us_nyc-c_sch_a_8)","ChIJAVYKVhFawokRXaCXY0rBkQY","40.7050863","-74.0127568","US","NYC","CTR","SCH","9 Beaver St, New York, NY 10004, USA","us_nyc-c_sch_b_8","90","us_nyc-c_sch_b_8_90"
"trial","survey","24","317262","0.0-2.0-22.0","615dd3b5525a10ed194dd7b1","625e209c10a247530e1c6964","625ee383647fe31ca50c9788","12","13062","","{""P0_Q0"":null,""ambiguous"":5,""objects"":5,""invisible"":3,""chaos"":1}","","","","","","","","","","","","","","","","","[]","Nearby location of Comfort Inn (us_chl_htl_a_low1)","ChIJ7WwDQLjOPIgRZf5dwFJ3f34","42.2988455","-84.0286729","US","CHL","CHL","HTL","1600 Commerce Park Dr STE 300, Chelsea, MI 48118, USA","us_chl_htl_b_low1","90","us_chl_htl_b_low1_90"
"trial","survey","25","328764","0.0-2.0-23.0","615dd3b5525a10ed194dd7b1","625e209c10a247530e1c6964","625ee383647fe31ca50c9788","12","11492","","{""P0_Q0"":null,""ambiguous"":3,""objects"":3,""invisible"":3,""chaos"":3}","","","","","","","","","","","","","","","","","[]","Nearby location of Flexstay Inn Shinagawa (jp_tok-p_htl_a_mid2)","ChIJd27F2VyKGGARc1F75nZNGYI","35.6235067","139.7415021","JP","TOK","PER","HTL","1-chōme-8-19 Kitashinagawa, Shinagawa City, Tokyo 140-0001, Japan","jp_tok-p_htl_b_mid2","0","jp_tok-p_htl_b_mid2_0"
"trial","survey","26","337493","0.0-2.0-24.0","615dd3b5525a10ed194dd7b1","625e209c10a247530e1c6964","625ee383647fe31ca50c9788","12","8718","","{""P0_Q0"":null,""ambiguous"":4,""objects"":3,""invisible"":3,""chaos"":2}","","","","","","","","","","","","","","","","","[]","Kakezuka Elementary School","ChIJLYvCVhSLGGARQZ0PUiBKWkg","35.6443992","139.714528","JP","TOK","CTR","SCH","4-chōme-21-10 Ebisu, Shibuya City, Tokyo 150-0013, Japan","jp_tok-c_sch_a_4","180","jp_tok-c_sch_a_4_180"
"trial","survey","27","348678","0.0-2.0-25.0","615dd3b5525a10ed194dd7b1","625e209c10a247530e1c6964","625ee383647fe31ca50c9788","12","11174","","{""P0_Q0"":null,""ambiguous"":5,""objects"":3,""invisible"":2,""chaos"":3}","","","","","","","","","","","","","","","","","[]","Oizumi Daini Elementary School","ChIJOT0Kk9nuGGARlr5-SQA1DDo","35.744542","139.573028","JP","TOK","PER","SCH","4-chōme-29-11 Minamiōizumi, Nerima City, Tokyo 178-0064, Japan","jp_tok-p_sch_a_6","0","jp_tok-p_sch_a_6_0"
"trial","survey","28","365925","0.0-2.0-26.0","615dd3b5525a10ed194dd7b1","625e209c10a247530e1c6964","625ee383647fe31ca50c9788","12","17237","","{""P0_Q0"":null,""ambiguous"":4,""objects"":2,""invisible"":2,""chaos"":1}","","","","","","","","","","","","","","","","","[]","Ann Arbor Hills Child Development Center","ChIJe87tMeKuPIgRVFWuWyeOdBY","42.2629596","-83.7044284","US","ARB","ARB","SCH","2775 Bedford Rd, Ann Arbor, MI 48104, USA","us_arb_sch_a_1","90","us_arb_sch_a_1_90"
"trial","survey","29","373661","0.0-2.0-27.0","615dd3b5525a10ed194dd7b1","625e209c10a247530e1c6964","625ee383647fe31ca50c9788","12","7725","","{""P0_Q0"":null,""ambiguous"":5,""objects"":5,""invisible"":5,""chaos"":5}","","","","","","","","","","","","","","","","","[]","Nearby location of Adachi Asahicho Post Office (jp_tok-p_pos_a_4)","ChIJhXM9R1KOGGAR7zoOSZK_VIU","35.7480131","139.8100604","JP","TOK","PER","POS","Japan, 〒120-0026 Tokyo, Adachi City, Senjuasahichō, 22−９ コーポ山田","jp_tok-p_pos_b_4","180","jp_tok-p_pos_b_4_180"
"trial","survey","30","388564","0.0-2.0-28.0","615dd3b5525a10ed194dd7b1","625e209c10a247530e1c6964","625ee383647fe31ca50c9788","12","14892","","{""P0_Q0"":null,""ambiguous"":2,""objects"":2,""invisible"":2,""chaos"":1}","","","","","","","","","","","","","","","","","[]","Graduate Ann Arbor","GPARB348","42.28143","-83.74164","US","ARB","ARB","HTL","615 E HURON ST , ANN ARBOR, MI 48104","us_arb_htl_a_high1","0","us_arb_htl_a_high1_0"
"trial","survey","31","400918","0.0-2.0-29.0","615dd3b5525a10ed194dd7b1","625e209c10a247530e1c6964","625ee383647fe31ca50c9788","12","12343","","{""P0_Q0"":null,""ambiguous"":4,""objects"":2,""invisible"":2,""chaos"":4}","","","","","","","","","","","","","","","","","[]","Nerima Sakuradai Post Office","ChIJazp3ghLtGGARuc0S6p6HeSM","35.7372339","139.6605353","JP","TOK","PER","POS","2-chōme-22-14 Toyotamakami, Nerima City, Tokyo 176-0011, Japan","jp_tok-p_pos_a_5","180","jp_tok-p_pos_a_5_180"
"trial","survey","32","408269","0.0-2.0-30.0","615dd3b5525a10ed194dd7b1","625e209c10a247530e1c6964","625ee383647fe31ca50c9788","12","7340","","{""P0_Q0"":null,""ambiguous"":4,""objects"":2,""invisible"":3,""chaos"":3}","","","","","","","","","","","","","","","","","[]","Tsukishima 2nd Elementary School","ChIJU0n9-HyJGGARNQSXKv-kIIY","35.6602474","139.7758266","JP","TOK","CTR","SCH","1-chōme-12-2 Kachidoki, Chuo City, Tokyo 104-0054, Japan","jp_tok-c_sch_a_3","270","jp_tok-c_sch_a_3_270"
"trial","survey","33","420005","0.0-2.0-31.0","615dd3b5525a10ed194dd7b1","625e209c10a247530e1c6964","625ee383647fe31ca50c9788","12","11726","","{""P0_Q0"":null,""ambiguous"":5,""objects"":4,""invisible"":4,""chaos"":4}","","","","","","","","","","","","","","","","","[]","United States Postal Service","ChIJESBBoWz2wokRc5NBjEpQTow","40.8112416","-73.9532884","US","NYC","CTR","POS","365 W 125th St Ste 2A, New York, NY 10027, USA","us_nyc-c_pos_a_1","0","us_nyc-c_pos_a_1_0"
"trial","survey","34","433645","0.0-2.0-32.0","615dd3b5525a10ed194dd7b1","625e209c10a247530e1c6964","625ee383647fe31ca50c9788","12","13629","","{""P0_Q0"":null,""ambiguous"":5,""objects"":3,""invisible"":3,""chaos"":5}","","","","","","","","","","","","","","","","","[]","Nearby location of Léman Manhattan Preparatory School (us_nyc-c_sch_a_8)","ChIJAVYKVhFawokRXaCXY0rBkQY","40.7050863","-74.0127568","US","NYC","CTR","SCH","9 Beaver St, New York, NY 10004, USA","us_nyc-c_sch_b_8","180","us_nyc-c_sch_b_8_180"
"trial","survey","35","445998","0.0-2.0-33.0","615dd3b5525a10ed194dd7b1","625e209c10a247530e1c6964","625ee383647fe31ca50c9788","12","12342","","{""P0_Q0"":null,""ambiguous"":5,""objects"":4,""invisible"":4,""chaos"":3}","","","","","","","","","","","","","","","","","[]","Mitsui Garden Kyobashi Tokyo","UITYOMGK","35.67906","139.77122","JP","TOK","CTR","HTL","1-3-6, KYOBASHI, CHUO-KU, TOKYO 1040031","jp_tok-c_htl_a_low2","90","jp_tok-c_htl_a_low2_90"
"trial","survey","36","457102","0.0-2.0-34.0","615dd3b5525a10ed194dd7b1","625e209c10a247530e1c6964","625ee383647fe31ca50c9788","12","11092","","{""P0_Q0"":null,""ambiguous"":5,""objects"":3,""invisible"":3,""chaos"":3}","","","","","","","","","","","","","","","","","[]","Nearby location of Higashi-Asakusa Elementary School (jp_tok-c_sch_a_8)","ChIJAytTi-2OGGARfOL1JBbMOoM","35.725672","139.7971627","JP","TOK","CTR","SCH","Japan, 〒111-0021 Tokyo, Taito City, Nihonzutsumi, 1-chōme−31−２ 平乃屋","jp_tok-c_sch_b_8","0","jp_tok-c_sch_b_8_0"
"trial","survey","37","471861","0.0-2.0-35.0","615dd3b5525a10ed194dd7b1","625e209c10a247530e1c6964","625ee383647fe31ca50c9788","12","14750","","{""P0_Q0"":null,""ambiguous"":4,""objects"":5,""invisible"":4,""chaos"":5}","","","","","","","","","","","","","","","","","[]","Nearby location of ORCHARD STREET HOTEL (us_nyc-c_htl_a_low1)","ChIJ8TquxYZZwokRPgCEBRlBnXM","40.7198222","-73.9898421","US","NYC","CTR","HTL","130 Allen St, New York, NY 10002, USA","us_nyc-c_htl_b_low1","90","us_nyc-c_htl_b_low1_90"
"trial","survey","38","486909","0.0-2.0-36.0","615dd3b5525a10ed194dd7b1","625e209c10a247530e1c6964","625ee383647fe31ca50c9788","12","15037","","{""P0_Q0"":null,""ambiguous"":5,""objects"":4,""invisible"":4,""chaos"":5}","","","","","","","","","","","","","","","","","[]","Nearby location of THOMPSON CENTRAL PARK - NEW YORK (us_nyc-c_htl_a_high2)","ChIJO4JkSfdYwokRIlgrbHiZhtk","40.7652312","-73.9775167","US","NYC","CTR","HTL","116 W 58th St, New York, NY 10019, USA","us_nyc-c_htl_b_high2","90","us_nyc-c_htl_b_high2_90"
"trial","survey","39","508069","0.0-2.0-37.0","615dd3b5525a10ed194dd7b1","625e209c10a247530e1c6964","625ee383647fe31ca50c9788","12","21150","","{""P0_Q0"":null,""ambiguous"":3,""objects"":3,""invisible"":3,""chaos"":4}","","","","","","","","","","","","","","","","","[]","Nearby location of United States Postal Service (us_nyc-c_pos_a_5)","ChIJTw7oFwP0wokR0VL0nLNaknc","40.857723","-73.93222","US","NYC","CTR","POS","Broadway/W 192 St, New York, NY 10040, USA","us_nyc-c_pos_b_5","90","us_nyc-c_pos_b_5_90"
"trial","survey","40","520805","0.0-2.0-38.0","615dd3b5525a10ed194dd7b1","625e209c10a247530e1c6964","625ee383647fe31ca50c9788","12","12726","","{""P0_Q0"":null,""ambiguous"":1,""objects"":1,""invisible"":1,""chaos"":1}","","","","","","","","","","","","","","","","","[]","Hotel Kaito","ChIJSw_1QTuSAWARZz9bnjVtA6Q","35.3989028","136.0315856","JP","HIK","HIK","HTL","Japan, 〒520-1631 Shiga, Takashima, Imazuchō Nakoji, 1-chōme−６−１０","jp_hik_htl_a_low2","0","jp_hik_htl_a_low2_0"
"trial","survey","41","536414","0.0-2.0-39.0","615dd3b5525a10ed194dd7b1","625e209c10a247530e1c6964","625ee383647fe31ca50c9788","12","15598","","{""P0_Q0"":null,""ambiguous"":5,""objects"":5,""invisible"":5,""chaos"":4}","","","","","","","","","","","","","","","","","[]","Nearby location of HOTEL K5 (jp_tok-c_htl_a_mid1)","ChIJb-Z94FCJGGARIe-5JBrSwok","35.6841632","139.7792313","JP","TOK","CTR","HTL","19-12 Nihonbashikoamichō, Chuo City, Tokyo 103-0016, Japan","jp_tok-c_htl_b_mid1","180","jp_tok-c_htl_b_mid1_180"
"attention-check","survey","42","540792","0.0-2.0-40.0","615dd3b5525a10ed194dd7b1","625e209c10a247530e1c6964","625ee383647fe31ca50c9788","12","4368","","{""P0_Q0"":null,""ambiguous"":null,""objects"":null,""invisible"":null,""chaos"":null}","","","","","","","","","","","","","","","","","[]","","","","","","","","","","","",""
"half-way","html-button-response","43","556556","0.0-2.0-41.0","615dd3b5525a10ed194dd7b1","625e209c10a247530e1c6964","625ee383647fe31ca50c9788","12","null","
            <h3>You are now half way through the study.</h3>
            <p>Please take a quick, 15-second break before you continue.</p>
            <img src='assets/img/countdown-15.gif'>
            <p>The study will automatically advance forward after the countdown is complete. However, you may click ""Next"" to advance forward now if you wish.</p>
        ","null","","","","","","","","","","","","","","","","","","","","","","","","","","","","",""
"trial","survey","44","567477","0.0-2.0-42.0","615dd3b5525a10ed194dd7b1","625e209c10a247530e1c6964","625ee383647fe31ca50c9788","12","10911","","{""P0_Q0"":null,""ambiguous"":5,""objects"":3,""invisible"":4,""chaos"":4}","","","","","","","","","","","","","","","","","[]","Hikoneatohoteru","ChIJcSdJDVfUA2ARZ1X1w0kURVw","35.2392938","136.255227","JP","HIK","HIK","HTL","1707-1 Takamiyachō, Hikone, Shiga 522-0201, Japan","jp_hik_htl_a_low1","90","jp_hik_htl_a_low1_90"
"trial","survey","45","574133","0.0-2.0-43.0","615dd3b5525a10ed194dd7b1","625e209c10a247530e1c6964","625ee383647fe31ca50c9788","12","6646","","{""P0_Q0"":null,""ambiguous"":5,""objects"":5,""invisible"":5,""chaos"":5}","","","","","","","","","","","","","","","","","[]","Adachi Asahicho Post Office","ChIJwzPq-E2OGGAR94jgKLnB1pg","35.7492042","139.8090847","JP","TOK","PER","POS","27-13 Senjuasahichō, Adachi City, Tokyo 120-0026, Japan","jp_tok-p_pos_a_4","90","jp_tok-p_pos_a_4_90"
"trial","survey","46","579165","0.0-2.0-44.0","615dd3b5525a10ed194dd7b1","625e209c10a247530e1c6964","625ee383647fe31ca50c9788","12","5022","","{""P0_Q0"":null,""ambiguous"":5,""objects"":5,""invisible"":5,""chaos"":5}","","","","","","","","","","","","","","","","","[]","Best Western Plus Arena Hotel","BWJFK142","40.67815","-73.94879","US","NYC","PER","HTL","1324 ATLANTIC AVENUE, BROOKLYN, NY 11216","us_nyc-p_htl_a_low1","90","us_nyc-p_htl_a_low1_90"
"trial","survey","47","593885","0.0-2.0-45.0","615dd3b5525a10ed194dd7b1","625e209c10a247530e1c6964","625ee383647fe31ca50c9788","12","14711","","{""P0_Q0"":null,""ambiguous"":3,""objects"":2,""invisible"":2,""chaos"":3}","","","","","","","","","","","","","","","","","[]","Nearby location of United States Postal Service (us_arb_pos_a_2)","ChIJlwkqdc6xPIgREfyzp428070","42.2697109","-83.7737698","US","ARB","ARB","POS","2019 W Stadium Blvd, Ann Arbor, MI 48103, USA","us_arb_pos_b_2","180","us_arb_pos_b_2_180"
"trial","survey","48","605149","0.0-2.0-46.0","615dd3b5525a10ed194dd7b1","625e209c10a247530e1c6964","625ee383647fe31ca50c9788","12","11254","","{""P0_Q0"":null,""ambiguous"":5,""objects"":3,""invisible"":2,""chaos"":4}","","","","","","","","","","","","","","","","","[]","Hilton New York JFK Airport, NY","HHJFK153","40.66771","-73.79584","US","NYC","PER","HTL","144 02 135TH AVENUE, JAMAICA, NY 11436","us_nyc-p_htl_a_mid2","0","us_nyc-p_htl_a_mid2_0"
"trial","survey","49","619485","0.0-2.0-47.0","615dd3b5525a10ed194dd7b1","625e209c10a247530e1c6964","625ee383647fe31ca50c9788","12","14326","","{""P0_Q0"":null,""ambiguous"":5,""objects"":3,""invisible"":2,""chaos"":2}","","","","","","","","","","","","","","","","","[]","Comfort Inn","ChIJ-4dsD7jOPIgR_03DSz1SKuQ","42.2976226","-84.0277709","US","CHL","CHL","HTL","1645 Commerce Park Dr, Chelsea, MI 48118, USA","us_chl_htl_a_low1","270","us_chl_htl_a_low1_270"
"trial","survey","50","631222","0.0-2.0-48.0","615dd3b5525a10ed194dd7b1","625e209c10a247530e1c6964","625ee383647fe31ca50c9788","12","11725","","{""P0_Q0"":null,""ambiguous"":4,""objects"":2,""invisible"":2,""chaos"":3}","","","","","","","","","","","","","","","","","[]","Nearby location of United States Postal Service (us_nyc-c_pos_a_4)","ChIJcyZXC532wokRElZ4iPS6aWo","40.8396207","-73.9374588","US","NYC","CTR","POS","2170 Amsterdam Ave, New York, NY 10032, USA","us_nyc-c_pos_b_4","90","us_nyc-c_pos_b_4_90"
"trial","survey","51","642997","0.0-2.0-49.0","615dd3b5525a10ed194dd7b1","625e209c10a247530e1c6964","625ee383647fe31ca50c9788","12","11766","","{""P0_Q0"":null,""ambiguous"":4,""objects"":4,""invisible"":3,""chaos"":3}","","","","","","","","","","","","","","","","","[]","The Ritz-Carlton Tokyo","RZTYORZZ","35.66622","139.7315","JP","TOK","CTR","HTL","TOKYO MIDTOWN 9-7-1 AKASAKA MI, TOKYO 107-6245","jp_tok-c_htl_a_ultra2","0","jp_tok-c_htl_a_ultra2_0"
"trial","survey","52","655479","0.0-2.0-50.0","615dd3b5525a10ed194dd7b1","625e209c10a247530e1c6964","625ee383647fe31ca50c9788","12","12471","","{""P0_Q0"":null,""ambiguous"":5,""objects"":5,""invisible"":5,""chaos"":2}","","","","","","","","","","","","","","","","","[]","Nearby location of Ann Arbor Hills Child Development Center (us_arb_sch_a_1)","ChIJayC39uGuPIgRi68_P3AKb4Y","42.2614403","-83.7036603","US","ARB","ARB","SCH","1620 Glenwood Rd, Ann Arbor, MI 48104, USA","us_arb_sch_b_1","0","us_arb_sch_b_1_0"
"trial","survey","53","670133","0.0-2.0-51.0","615dd3b5525a10ed194dd7b1","625e209c10a247530e1c6964","625ee383647fe31ca50c9788","12","14643","","{""P0_Q0"":null,""ambiguous"":2,""objects"":3,""invisible"":2,""chaos"":3}","","","","","","","","","","","","","","","","","[]","Kirihara Higashi Elementary School","ChIJpavbTi56AWARRkSsYgXqutM","35.122484","136.087719","JP","HIK","HIK","SCH","175 Tsuchidachō, Omihachiman, Shiga 523-0082, Japan","jp_hik_sch_a_2","90","jp_hik_sch_a_2_90"
"trial","survey","54","686596","0.0-2.0-52.0","615dd3b5525a10ed194dd7b1","625e209c10a247530e1c6964","625ee383647fe31ca50c9788","12","16452","","{""P0_Q0"":null,""ambiguous"":5,""objects"":4,""invisible"":3,""chaos"":4}","","","","","","","","","","","","","","","","","[]","Nearby location of PS 146 Anna M. Short School (us_nyc-c_sch_a_5)","ChIJ2YTRCqpYwokRoILxg84fVx0","40.788425","-73.9404164","US","NYC","CTR","SCH","416 E 105th St, New York, NY 10029, USA","us_nyc-c_sch_b_5","180","us_nyc-c_sch_b_5_180"
"trial","survey","55","696445","0.0-2.0-53.0","615dd3b5525a10ed194dd7b1","625e209c10a247530e1c6964","625ee383647fe31ca50c9788","12","9838","","{""P0_Q0"":null,""ambiguous"":3,""objects"":3,""invisible"":3,""chaos"":3}","","","","","","","","","","","","","","","","","[]","Nearby location of The Ritz-Carlton Tokyo (jp_tok-c_htl_a_ultra2)","ChIJdZpNkoKLGGARPstgSDOpX5o","35.6651495","139.7330667","JP","TOK","CTR","HTL","4-chōme-3-24 Roppongi, Minato City, Tokyo 106-0032, Japan","jp_tok-c_htl_b_ultra2","90","jp_tok-c_htl_b_ultra2_90"
"trial","survey","56","705973","0.0-2.0-54.0","615dd3b5525a10ed194dd7b1","625e209c10a247530e1c6964","625ee383647fe31ca50c9788","12","9517","","{""P0_Q0"":null,""ambiguous"":4,""objects"":5,""invisible"":5,""chaos"":3}","","","","","","","","","","","","","","","","","[]","Nearby location of Courtyard by Marriott New York Manhattan Fifth Avenue (us_nyc-c_htl_a_mid2)","ChIJ5Yg_sQBZwokRHhiGwRT771k","40.750592","-73.982198","US","NYC","CTR","HTL","6 E 38th St, New York, NY 10016, USA","us_nyc-c_htl_b_mid2","90","us_nyc-c_htl_b_mid2_90"
"trial","survey","57","720270","0.0-2.0-55.0","615dd3b5525a10ed194dd7b1","625e209c10a247530e1c6964","625ee383647fe31ca50c9788","12","14287","","{""P0_Q0"":null,""ambiguous"":2,""objects"":3,""invisible"":1,""chaos"":3}","","","","","","","","","","","","","","","","","[]","Higashi-Asakusa Elementary School","ChIJQ2511u2OGGAR0Tk3tO-VmJw","35.724431","139.798207","JP","TOK","CTR","SCH","2-chōme-27-19 Higashiasakusa, Taito City, Tokyo 111-0025, Japan","jp_tok-c_sch_a_8","270","jp_tok-c_sch_a_8_270"
"trial","survey","58","730958","0.0-2.0-56.0","615dd3b5525a10ed194dd7b1","625e209c10a247530e1c6964","625ee383647fe31ca50c9788","12","10681","","{""P0_Q0"":null,""ambiguous"":1,""objects"":1,""invisible"":1,""chaos"":2}","","","","","","","","","","","","","","","","","[]","Nearby location of Sandy Hook CenTer (us_nyc-c_sch_a_4)","ChIJVVVgOJFZwokRN9n4QjPq_Dc","40.731952","-73.999183","US","NYC","CTR","SCH","31 Washington Square W, New York, NY 10011, USA","us_nyc-c_sch_b_4","270","us_nyc-c_sch_b_4_270"
"trial","survey","59","743444","0.0-2.0-57.0","615dd3b5525a10ed194dd7b1","625e209c10a247530e1c6964","625ee383647fe31ca50c9788","12","12478","","{""P0_Q0"":null,""ambiguous"":3,""objects"":4,""invisible"":3,""chaos"":3}","","","","","","","","","","","","","","","","","[]","Nearby location of Yotsuya Station Post Office (jp_tok-c_pos_a_3)","ChIJ5QGWpIuMGGARM3syjI6N6t8","35.6864179","139.7285004","JP","TOK","CTR","POS","1-chōme-8-3 Yotsuya, Shinjuku City, Tokyo 160-0004, Japan","jp_tok-c_pos_b_3","0","jp_tok-c_pos_b_3_0"
"trial","survey","60","753045","0.0-2.0-58.0","615dd3b5525a10ed194dd7b1","625e209c10a247530e1c6964","625ee383647fe31ca50c9788","12","9590","","{""P0_Q0"":null,""ambiguous"":4,""objects"":4,""invisible"":4,""chaos"":4}","","","","","","","","","","","","","","","","","[]","Nearby location of William O'Shea Campus (us_nyc-c_sch_a_6)","ChIJpefuOY9YwokR-Pk3vGiQNI4","40.7819913","-73.9762638","US","NYC","CTR","SCH","118 W 79th St, New York, NY 10024, USA","us_nyc-c_sch_b_6","0","us_nyc-c_sch_b_6_0"
"trial","survey","61","764797","0.0-2.0-59.0","615dd3b5525a10ed194dd7b1","625e209c10a247530e1c6964","625ee383647fe31ca50c9788","12","11741","","{""P0_Q0"":null,""ambiguous"":2,""objects"":4,""invisible"":1,""chaos"":3}","","","","","","","","","","","","","","","","","[]","Yotsuya Station Post Office","ChIJM8cHVYqMGGARUz2wtp-skCo","35.6875819","139.7296034","JP","TOK","CTR","POS","Japan, 〒160-0004 Tokyo, Shinjuku City, Yotsuya, 1-chōme−６−１","jp_tok-c_pos_a_3","270","jp_tok-c_pos_a_3_270"
"trial","survey","62","783965","0.0-2.0-60.0","615dd3b5525a10ed194dd7b1","625e209c10a247530e1c6964","625ee383647fe31ca50c9788","12","19160","","{""P0_Q0"":null,""ambiguous"":4,""objects"":4,""invisible"":4,""chaos"":3}","","","","","","","","","","","","","","","","","[]","United States Postal Service","ChIJS0NV70lawokRJtOpGTdtCiU","40.6959073","-73.9899798","US","NYC","PER","POS","271 Cadman Plaza E Ste 2, Brooklyn, NY 11201, USA","us_nyc-p_pos_a_4","0","us_nyc-p_pos_a_4_0"
"trial","survey","63","794174","0.0-2.0-61.0","615dd3b5525a10ed194dd7b1","625e209c10a247530e1c6964","625ee383647fe31ca50c9788","12","10197","","{""P0_Q0"":null,""ambiguous"":4,""objects"":4,""invisible"":4,""chaos"":3}","","","","","","","","","","","","","","","","","[]","Ōmori Bellport Post Office","ChIJFXY_sTJgGGARZtQCo-Qdz_M","35.5888587","139.7314559","JP","HIK","HIK","POS","6-chōme-26-3 Minamiōi, Shinagawa City, Tokyo 140-0013, Japan","jp_hik_pos_a_2","180","jp_hik_pos_a_2_180"
"trial","survey","64","812981","0.0-2.0-62.0","615dd3b5525a10ed194dd7b1","625e209c10a247530e1c6964","625ee383647fe31ca50c9788","12","18797","","{""P0_Q0"":null,""ambiguous"":3,""objects"":4,""invisible"":3,""chaos"":3}","","","","","","","","","","","","","","","","","[]","HOTEL ALLAMANDA AOYAMA","FGTYOHAA","35.67122","139.71765","JP","TOK","CTR","HTL","2-7-13 KITA AOYAMA MINATO-KU, TOKYO 107 0061","jp_tok-c_htl_a_high1","180","jp_tok-c_htl_a_high1_180"
"trial","survey","65","830455","0.0-2.0-63.0","615dd3b5525a10ed194dd7b1","625e209c10a247530e1c6964","625ee383647fe31ca50c9788","12","17467","","{""P0_Q0"":null,""ambiguous"":4,""objects"":4,""invisible"":3,""chaos"":3}","","","","","","","","","","","","","","","","","[]","Nearby location of Red Roof PLUS Ann Arbor-Univ North (us_arb_htl_a_low1)","ChIJDRKdQxqsPIgRu07gYIBr9Ds","42.3074995","-83.6914727","US","ARB","ARB","HTL","2310 Green Rd, Ann Arbor, MI 48105, USA","us_arb_htl_b_low1","0","us_arb_htl_b_low1_0"
"trial","survey","66","848404","0.0-2.0-64.0","615dd3b5525a10ed194dd7b1","625e209c10a247530e1c6964","625ee383647fe31ca50c9788","12","17940","","{""P0_Q0"":null,""ambiguous"":3,""objects"":2,""invisible"":1,""chaos"":3}","","","","","","","","","","","","","","","","","[]","Nearby location of Hotel Kaito (jp_hik_htl_a_low2)","ChIJK566KTuSAWARF4Kp9393J_4","35.3976612","136.0302169","JP","HIK","HIK","HTL","Japan, 〒520-1631 Shiga, Takashima, Imazuchō Nakoji, 2-chōme−６−３２","jp_hik_htl_b_low2","270","jp_hik_htl_b_low2_270"
"trial","survey","67","870261","0.0-2.0-65.0","615dd3b5525a10ed194dd7b1","625e209c10a247530e1c6964","625ee383647fe31ca50c9788","12","21845","","{""P0_Q0"":null,""ambiguous"":2,""objects"":3,""invisible"":1,""chaos"":2}","","","","","","","","","","","","","","","","","[]","Nearby location of United States Postal Service (us_arb_pos_a_1)","ChIJyxaGSDe7PIgRdsmUdk5LYuo","42.1703237","-83.7718728","US","ARB","ARB","POS","450 E Michigan Ave, Saline, MI 48176, USA","us_arb_pos_b_1","0","us_arb_pos_b_1_0"
"trial","survey","68","880582","0.0-2.0-66.0","615dd3b5525a10ed194dd7b1","625e209c10a247530e1c6964","625ee383647fe31ca50c9788","12","10314","","{""P0_Q0"":null,""ambiguous"":5,""objects"":4,""invisible"":4,""chaos"":3}","","","","","","","","","","","","","","","","","[]","Nearby location of United States Postal Service (us_nyc-c_pos_a_8)","ChIJEcOl7cBZwokREHeZNl9a5Q0","40.7424383","-74.007802","US","NYC","CTR","POS","60 10th Ave, New York, NY 10014, USA","us_nyc-c_pos_b_8","270","us_nyc-c_pos_b_8_270"
"trial","survey","69","894501","0.0-2.0-67.0","615dd3b5525a10ed194dd7b1","625e209c10a247530e1c6964","625ee383647fe31ca50c9788","12","13911","","{""P0_Q0"":null,""ambiguous"":4,""objects"":4,""invisible"":3,""chaos"":5}","","","","","","","","","","","","","","","","","[]","Nearby location of Comfort Inn JFK Airport (us_nyc-p_htl_a_low2)","ChIJ8dO9l21nwokRghi6bJiuq5c","40.6671742","-73.806723","US","NYC","PER","HTL","133-38 135th Ave, Queens, NY 11420, USA","us_nyc-p_htl_b_low2","90","us_nyc-p_htl_b_low2_90"
"trial","survey","70","905254","0.0-2.0-68.0","615dd3b5525a10ed194dd7b1","625e209c10a247530e1c6964","625ee383647fe31ca50c9788","12","10743","","{""P0_Q0"":null,""ambiguous"":3,""objects"":3,""invisible"":3,""chaos"":3}","","","","","","","","","","","","","","","","","[]","レジーナリゾートびわ湖長浜","ChIJJ5e4VxopAmAR65mu8Uxdxg0","35.3785745","136.2594856","JP","HIK","HIK","HTL","4-22 Kōenchō, Nagahama, Shiga 526-0065, Japan","jp_hik_htl_a_high2","90","jp_hik_htl_a_high2_90"
"trial","survey","71","923261","0.0-2.0-69.0","615dd3b5525a10ed194dd7b1","625e209c10a247530e1c6964","625ee383647fe31ca50c9788","12","17997","","{""P0_Q0"":null,""ambiguous"":2,""objects"":4,""invisible"":2,""chaos"":2}","","","","","","","","","","","","","","","","","[]","Nearby location of Bell Tower Hotel (us_arb_htl_a_high2)","ChIJuS95eUCuPIgRE9IqLokaozs","42.280115","-83.7411408","US","ARB","ARB","HTL","200 S State St, Ann Arbor, MI 48104, USA","us_arb_htl_b_high2","270","us_arb_htl_b_high2_270"
"trial","survey","72","938948","0.0-2.0-70.0","615dd3b5525a10ed194dd7b1","625e209c10a247530e1c6964","625ee383647fe31ca50c9788","12","15676","","{""P0_Q0"":null,""ambiguous"":3,""objects"":2,""invisible"":2,""chaos"":3}","","","","","","","","","","","","","","","","","[]","Nearby location of Kanponoyado Hikone (jp_hik_htl_a_mid1)","ChIJ52LxtyYrAmARRzLfR851uZY","35.2879027","136.2510942","JP","HIK","HIK","HTL","1090 Matsubarachō, Hikone, Shiga 522-0002, Japan","jp_hik_htl_b_mid1","90","jp_hik_htl_b_mid1_90"
"trial","survey","73","952382","0.0-2.0-71.0","615dd3b5525a10ed194dd7b1","625e209c10a247530e1c6964","625ee383647fe31ca50c9788","12","13426","","{""P0_Q0"":null,""ambiguous"":4,""objects"":4,""invisible"":3,""chaos"":3}","","","","","","","","","","","","","","","","","[]","Nearby location of United States Postal Service (us_nyc-c_pos_a_7)","ChIJjVTn2xD2wokRxjWBnF0UGVg","40.8023565","-73.9528115","US","NYC","CTR","POS","113 St Nicholas Ave, New York, NY 10026, USA","us_nyc-c_pos_b_7","270","us_nyc-c_pos_b_7_270"
"trial","survey","74","964221","0.0-2.0-72.0","615dd3b5525a10ed194dd7b1","625e209c10a247530e1c6964","625ee383647fe31ca50c9788","12","11830","","{""P0_Q0"":null,""ambiguous"":2,""objects"":2,""invisible"":2,""chaos"":2}","","","","","","","","","","","","","","","","","[]","Nearby location of Baymont by Wyndham Chelsea (us_chl_htl_a_mid1)","ChIJPR5PbrjOPIgRniUqQCWoPWs","42.298341","-84.0291029","US","CHL","CHL","HTL","1620 Commerce Park Dr suite 100, Chelsea, MI 48118, USA","us_chl_htl_b_mid1","180","us_chl_htl_b_mid1_180"
"trial","survey","75","975341","0.0-2.0-73.0","615dd3b5525a10ed194dd7b1","625e209c10a247530e1c6964","625ee383647fe31ca50c9788","12","11111","","{""P0_Q0"":null,""ambiguous"":3,""objects"":3,""invisible"":3,""chaos"":2}","","","","","","","","","","","","","","","","","[]","Sakata Elementary School","ChIJVW6XQ3csAmARmDgDxmrtsD8","35.33759","136.289157","JP","HIK","HIK","SCH","508 Ukano, Maibara, Shiga 521-0062, Japan","jp_hik_sch_a_4","90","jp_hik_sch_a_4_90"
"trial","survey","76","986517","0.0-2.0-74.0","615dd3b5525a10ed194dd7b1","625e209c10a247530e1c6964","625ee383647fe31ca50c9788","12","11165","","{""P0_Q0"":null,""ambiguous"":2,""objects"":1,""invisible"":1,""chaos"":1}","","","","","","","","","","","","","","","","","[]","Jittered SV for Nearby location of Hotel Villa Fontaine Nihombashi-Hakozaki (jp_tok-c_htl_a_low1) (jp_tok-c_htl_b_low1)","ChIJcZnDxKeJGGARHOldLPKzIl8","35.6825421","139.7856265","JP","TOK","CTR","HTL","Japan, 〒103-0014 Tokyo, Chuo City, Nihonbashikakigarachō, 2-chōme−2−２ 関口ビル","jp_tok-c_htl_b_low1","180","jp_tok-c_htl_b_low1_180"
"trial","survey","77","998141","0.0-2.0-75.0","615dd3b5525a10ed194dd7b1","625e209c10a247530e1c6964","625ee383647fe31ca50c9788","12","11615","","{""P0_Q0"":null,""ambiguous"":4,""objects"":5,""invisible"":1,""chaos"":1}","","","","","","","","","","","","","","","","","[]","Jittered SV for Nearby location of 須賀谷温泉 (jp_tor_htl_a_high1) (jp_tor_htl_b_high1)","GhIJIiaXtQO6QUARjDUSVwQJYUA","35.4532382","136.2817798","JP","TOR","TOR","HTL","F73J+7P Nagahama, Shiga, Japan","jp_tor_htl_b_high1","270","jp_tor_htl_b_high1_270"
"trial","survey","78","1008902","0.0-2.0-76.0","615dd3b5525a10ed194dd7b1","625e209c10a247530e1c6964","625ee383647fe31ca50c9788","12","10754","","{""P0_Q0"":null,""ambiguous"":5,""objects"":4,""invisible"":5,""chaos"":5}","","","","","","","","","","","","","","","","","[]","Tyler school","ChIJt-5KfXv1wokRq4WnokUwQ44","40.8513114","-73.8564072","US","NYC","PER","SCH","1916 Hone Ave, Bronx, NY 10461, USA","us_nyc-p_sch_a_3","180","us_nyc-p_sch_a_3_180"
"demographics","survey-html-form","79","1016807","0.0-2.0-77.0","615dd3b5525a10ed194dd7b1","625e209c10a247530e1c6964","625ee383647fe31ca50c9788","12","7903","","{""age"":""30"",""gender"":""male"",""gender-self-describe"":"""",""zipcode"":""18517""}","","","","","","","","","","","","","","","","","","","","","","","","","","","","",""
"demographics","survey","80","1021010","0.0-2.0-78.0","615dd3b5525a10ed194dd7b1","625e209c10a247530e1c6964","625ee383647fe31ca50c9788","12","4185","","{""P0_Q0"":null,""outsideUS"":""No"",""outsideUS_years"":""""}","","","","","","","","","","","","","","","","","[]","","","","","","","","","","","",""
"end-survey","survey-text","81","1022423","0.0-2.0-79.0","615dd3b5525a10ed194dd7b1","625e209c10a247530e1c6964","625ee383647fe31ca50c9788","12","1404","","{""Q0"":""""}","","","","","","","","","","","","","","","","","","","","","","","","","","","","",""
