"task","trial_type","trial_index","time_elapsed","internal_node_id","group","width","height","webaudio","browser","browser_version","mobile","os","fullscreen","vsync_rate","webcam","microphone","success","timeout","failed_images","failed_audio","failed_video","rt","stimulus","response","accuracy","name","place_id","lat","lng","culture","loc1","loc2","loct","address","loc_id_prev","angle","loc_id"
"pavlovia-init","pavlovia","0","750","0.0-0.0","10","","","","","","","","","","","","","","","","","","","","","","","","","","","","","","","",""
"browser-check","browser-check","1","1561","0.0-1.0","10","1455","758","true","chrome","100.0.4896","false","Mac OS","true","74.98","true","true","","","","","","","","","","","","","","","","","","","","",""
"","preload","2","1579","0.0-2.0","10","","","","","","","","","","","","true","false","[]","[]","[]","","","","","","","","","","","","","","","",""
"instructions","html-button-response","3","2626","0.0-3.0","10","","","","","","","","","","","","","","","","","1046","
        <div class=""text-container"">
            <h1>Welcome to the study!</h1>
            
            <div class=""text-left"">
                <p>
                    In this study, we are interested in how people think about different Google Street View images. Google Street View takes pictures of streets used for Google Earth and Google Maps. You’ll see Google Street View images of different places and answer some questions about each one.
                </p>
            </div>
            
            <img src='
            https://maps.googleapis.com/maps/api/streetview?size=640x320
            &location=37.783631,-122.432766
            &heading=80
            &pitch=2
            &fov=100
            &radius=150
            &key=AIzaSyC2OxRDg6qlzZDj7j0UAD2XyE0qWokLvvs
            &source=outdoor'>
        
            <br>
        <br>
    ","0","","","","","","","","","","","","",""
"instructions","html-button-response","4","4208","0.0-4.0","10","","","","","","","","","","","","","","","","","1277","
        <style>
            img.small {
            max-width: 100px;
            }
            li {
            text-indent: 40px;
            }
        </style>

        <div class=""text-container text-left"">
            <p>For each picture, we’d like your impressions of the scene:</p>
            
            <hr>
                Are there <b>clear, distinct boundaries</b> between objects in the scene, or are the <b>boundaries ambiguous or unclear</b>?
                
                <li>clear, distinct boundaries: <img class=""small"" src=""assets/img/ambiguous-low.png""></li>
                <li>ambiguous or unclear boundaries: <img class=""small"" src=""assets/img/ambiguous-high.png""></li>
            <hr>
            <br>
                Are there <b>only a few different objects</b> in the scene, or is there <b>a large number</b>?
            <br><br>
            <hr>
                Are only <b>a few parts</b> of the scene <b>invisible or obscured</b>, or are <b>many parts invisible or obscured</b>?
                
                <li>a few parts invisible or obscured: <img class=""small"" src=""assets/img/invisible-low.png""></li>
                <li>many parts invisible or obscured: <img class=""small"" src=""assets/img/invisible-high.png""></li>
            <hr>
            <br>
                Does the scene look <b>organized</b> or <b>chaotic</b> to you?
            <br><br>
            <hr>
            
            <p>
                There are no right or wrong answers: we are interested in <b>your</b> impression. Note that some images might have individual buildings or faces blurred for privacy. Please ignore these when making your judgments.
            </p>
        </div>
        <br>
    ","0","","","","","","","","","","","","",""
"instructions","html-button-response","5","5046","0.0-5.0","10","","","","","","","","","","","","","","","","","836","
        <div class=""text-container text-left"">
            <p>Please make sure you are doing this study in an area where you can focus and complete the survey in one sitting.</p>

            <p>Don’t spend too much time on any one picture, and, again go with your gut impression!</p>
            
            <p>The study should take about 30 minutes. We’ll let you know when you’re halfway through.</p>
        </div>
            
        <h3>Ready? Click next to get started!</h3>
        <br>
    ","0","","","","","","","","","","","","",""
"trial","survey","6","8706","0.0-6.0","10","","","","","","","","","","","","","","","","","3616","","{""P0_Q0"":null,""ambiguous"":4,""objects"":3,""invisible"":5,""chaos"":null}","[]","Nearby location of Nagahama Shiritsu Torahime Elementary School (jp_tor_sch_a_1)","ChIJfT7yNZ8oAmAROTHUpaMv9Ak","35.419735","136.265362","JP","TOR","TOR","SCH","2410 Miyabechō, Nagahama, Shiga 529-0112, Japan","jp_tor_sch_b_1","270","jp_tor_sch_b_1_270"
"trial","survey","7","11639","0.0-7.0","10","","","","","","","","","","","","","","","","","2924","","{""P0_Q0"":null,""ambiguous"":3,""objects"":5,""invisible"":3,""chaos"":null}","[]","Léman Manhattan Preparatory School","ChIJ1R3juBZawokRy34rGleDCJs","40.7060686","-74.0140159","US","NYC","CTR","SCH","1 Morris St, New York, NY 10004, USA","us_nyc-c_sch_a_8","180","us_nyc-c_sch_a_8_180"
"attention-check","survey","8","12848","0.0-8.0","10","","","","","","","","","","","","","","","","","1201","","{""P0_Q0"":null,""ambiguous"":null,""objects"":null,""invisible"":null,""chaos"":null}","[]","","","","","","","","","","","",""
"half-way","html-button-response","9","14130","0.0-9.0","10","","","","","","","","","","","","","","","","","1280","
            <h3>You are now half way through the study.</h3>
            <p>Please take a quick, 15-second break before you continue.</p>
            <img src='assets/img/countdown-15.gif'>
            <p>The study will automatically advance forward after the countdown is complete. However, you may click ""Next"" to advance forward now if you wish.</p>
        ","0","","","","","","","","","","","","",""
"trial","survey","10","16809","0.0-10.0","10","","","","","","","","","","","","","","","","","2670","","{""P0_Q0"":null,""ambiguous"":4,""objects"":null,""invisible"":2,""chaos"":null}","[]","The Hoxton Williamsburg","WVNYC801","40.7207","-73.95876","US","NYC","PER","HTL","97 WYTHE AVENUE, NEW YORK, NY 11249","us_nyc-p_htl_a_high2","0","us_nyc-p_htl_a_high2_0"
"trial","survey","11","18502","0.0-11.0","10","","","","","","","","","","","","","","","","","1685","","{""P0_Q0"":null,""ambiguous"":5,""objects"":null,""invisible"":null,""chaos"":null}","[]","United States Postal Service","ChIJ-z0tqtinPIgRRFOwdMC_IJo","42.2168766","-83.6200448","US","ARB","ARB","POS","1606 S Huron St, Ypsilanti, MI 48197, USA","us_arb_pos_a_3","0","us_arb_pos_a_3_0"
"demographics","survey-html-form","12","19947","0.0-12.0","10","","","","","","","","","","","","","","","","","1443","","{""age"":"""",""gender-self-describe"":"""",""zipcode"":""""}","","","","","","","","","","","","",""
"end-survey","survey-text","13","22185","0.0-13.0","10","","","","","","","","","","","","","","","","","2234","","{""Q0"":""test test""}","","","","","","","","","","","","",""
"end-survey","html-button-response","14","23689","0.0-14.0","10","","","","","","","","","","","","","","","","","null","<p>Thanks for participating! Please do not close this browser tab until you are redirected.</p>","null","","","","","","","","","","","","",""
