"task","trial_type","trial_index","time_elapsed","internal_node_id","subject_id","study_id","session_id","group","rt","stimulus","response","width","height","webaudio","browser","browser_version","mobile","os","fullscreen","vsync_rate","webcam","microphone","success","timeout","failed_images","failed_audio","failed_video","accuracy","name","place_id","lat","lng","culture","loc1","loc2","loct","address","loc_id_prev","angle","loc_id"
"pavlovia-init","pavlovia","0","1618","0.0-0.0","60ff005a566dbbeff7dd5f6f","626166b218b78fee4e9d8d4d","626181fddf08c737adabb494","6","","","","","","","","","","","","","","","","","","","","","","","","","","","","","","","",""
"consent","html-button-response","1","15169","0.0-1.0","60ff005a566dbbeff7dd5f6f","626166b218b78fee4e9d8d4d","626181fddf08c737adabb494","6","13544","
        <div style=""font-size: 80%; max-width:700px"">
            <h2>Informed Consent</h2><br>
        
            <div style=""text-align: left"">
            <h3>Streetscape Perceptions</h3>
            <b>HUM00189138</b>
            <br><hr>
        
            <h4>DESCRIPTION</h4>
            <p>
                In this study, you will view Google Street View images. You will then answer questions about your impressions of the streetscapes presented in those images.
            </p><br>
        
            <h4>TIME INVOLVEMENT</h4>
            <p>Your participation will take approximately 30 minutes.</p><br>
        
            <h4>RISKS AND BENEFITS</h4>
            <p>
                The risks associated with this study are minimal. The benefits which may reasonably be expected to result from this study are none.  We cannot and do not guarantee or promise that you will receive any benefits from this study. 
            </p><br>
        
            <h4>PAYMENTS</h4>
            <p>You will be paid <b>$5.00</b> for your participation.</p><br>
        
            <h4>SUBJECT'S RIGHTS</h4>
            <p>
                If you have read this form and have decided to participate in this project, please understand your participation is voluntary and you have the right to withdraw your consent or discontinue participation at any time without penalty or loss of benefits to which you are otherwise entitled.  The alternative is not to participate.  You have the right to refuse to answer particular questions.  
            </p>
        
            <p>
                Your individual privacy will be maintained in all published and written data resulting from the study. Your responses will be kept confidential: you are given a participant code, and no one, not even the research team, can match that code with your identity. Your collected information may also be shared with other researchers as part of our dataset.
            </p><br>
        
            <h4>CONTACT INFORMATION</h4>
            <p>
                Questions: If you have any questions, concerns or complaints about this research, its procedures, risks and benefits, contact the Protocol Director, Nicholas Camp, npcamp@umich.edu, (443) 851-6783.
            </p>
        
            <p>
                If you have questions about your rights as a research participant, or wish to obtain information, ask questions or discuss any concerns about this study with someone other than the researcher(s), please contact the following:
                <br><br>
        
                University of Michigan<br>
                Health Sciences and Behavioral Sciences Institutional Review Board
                (IRB-HSBS)<br>
                2800 Plymouth Road <br>
                Building 520, Room 1169 <br>
                Ann Arbor, MI 48109-2800 <br>
                Telephone: 734-936-0933 or toll free (866) 936-0933 <br>
                Fax: 734-936-1852 <br />
                E-mail: irbhsbs@umich.edu <br>
            </p>
        
            <p>
                You can also contact the University of Michigan Compliance Hotline at 1-866-990-0111. You may also print this consent form to keep.
            </p>
            <br>
        
            <div class=""alert alert-warning""><b>
                Do you consent to participate in this study? If you consent to participate in this study, please click “Accept and continue.”
            </b></div>
            </div>
        </div>
    ","1","","","","","","","","","","","","","","","","","","","","","","","","","","","","",""
"browser-check","browser-check","2","16152","0.0-2.0-0.0","60ff005a566dbbeff7dd5f6f","626166b218b78fee4e9d8d4d","626181fddf08c737adabb494","6","","","","1504","892","true","chrome","100.0.4896","false","Windows 10","true","61.48","true","true","","","","","","","","","","","","","","","","","",""
"","preload","3","22752","0.0-2.0-1.0","60ff005a566dbbeff7dd5f6f","626166b218b78fee4e9d8d4d","626181fddf08c737adabb494","6","","","","","","","","","","","","","","","true","false","[]","[]","[]","","","","","","","","","","","","",""
"instructions","html-button-response","4","33121","0.0-2.0-2.0","60ff005a566dbbeff7dd5f6f","626166b218b78fee4e9d8d4d","626181fddf08c737adabb494","6","10366","
        <div class=""text-container"">
            <h1>Welcome to the study!</h1>
            
            <div class=""text-left"">
                <p>
                    In this study, we are interested in how people think about different Google Street View images. Google Street View takes pictures of streets used for Google Earth and Google Maps. You’ll see Google Street View images of different places and answer some questions about each one.
                </p>
            </div>
            
            <img src='
            https://maps.googleapis.com/maps/api/streetview?size=640x320
            &location=37.783631,-122.432766
            &heading=80
            &pitch=2
            &fov=100
            &radius=150
            &key=AIzaSyC2OxRDg6qlzZDj7j0UAD2XyE0qWokLvvs
            &source=outdoor'>
        
            <br>
        <br>
    ","0","","","","","","","","","","","","","","","","","","","","","","","","","","","","",""
"instructions","html-button-response","5","55488","0.0-2.0-3.0","60ff005a566dbbeff7dd5f6f","626166b218b78fee4e9d8d4d","626181fddf08c737adabb494","6","22048","
        <style>
            img.small {
            max-width: 100px;
            }
            li {
            text-indent: 40px;
            }
        </style>

        <div class=""text-container text-left"">
            <p>For each picture, we’d like your impressions of the scene:</p>
            
            <hr>
                Are there <b>clear, distinct boundaries</b> between objects in the scene, or are the <b>boundaries ambiguous or unclear</b>?
                
                <li>clear, distinct boundaries: <img class=""small"" src=""assets/img/ambiguous-low.png""></li>
                <li>ambiguous or unclear boundaries: <img class=""small"" src=""assets/img/ambiguous-high.png""></li>
            <hr>
            <br>
                Are there <b>only a few different objects</b> in the scene, or is there <b>a large number</b>?
            <br><br>
            <hr>
                Are only <b>a few parts</b> of the scene <b>invisible or obscured</b>, or are <b>many parts invisible or obscured</b>?
                
                <li>a few parts invisible or obscured: <img class=""small"" src=""assets/img/invisible-low.png""></li>
                <li>many parts invisible or obscured: <img class=""small"" src=""assets/img/invisible-high.png""></li>
            <hr>
            <br>
                Does the scene look <b>organized</b> or <b>chaotic</b> to you?
            <br><br>
            <hr>
            
            <p>
                There are no right or wrong answers: we are interested in <b>your</b> impression. Note that some images might have individual buildings or faces blurred for privacy. Please ignore these when making your judgments.
            </p>
        </div>
        <br>
    ","0","","","","","","","","","","","","","","","","","","","","","","","","","","","","",""
"instructions","html-button-response","6","63336","0.0-2.0-4.0","60ff005a566dbbeff7dd5f6f","626166b218b78fee4e9d8d4d","626181fddf08c737adabb494","6","7842","
        <div class=""text-container text-left"">
            <p>Please make sure you are doing this study in an area where you can focus and complete the survey in one sitting.</p>

            <p>Don’t spend too much time on any one picture, and, again go with your gut impression!</p>
            
            <p>The study should take about 30 minutes. We’ll let you know when you’re halfway through.</p>
        </div>
            
        <h3>Ready? Click next to get started!</h3>
        <br>
    ","0","","","","","","","","","","","","","","","","","","","","","","","","","","","","",""
"trial","survey","7","91792","0.0-2.0-5.0","60ff005a566dbbeff7dd5f6f","626166b218b78fee4e9d8d4d","626181fddf08c737adabb494","6","28276","","{""P0_Q0"":null,""ambiguous"":4,""objects"":4,""invisible"":5,""chaos"":4}","","","","","","","","","","","","","","","","","[]","Manually Updated Days Inn by Wyndham Ann Arbor","DIARB238","42.252588","-83.680721","US","ARB","ARB","HTL","2380 CARPENTER ROAD, ANN ARBOR, MI 48108","us_arb_htl_a_low2","180","us_arb_htl_a_low2_180"
"trial","survey","8","110273","0.0-2.0-6.0","60ff005a566dbbeff7dd5f6f","626166b218b78fee4e9d8d4d","626181fddf08c737adabb494","6","18417","","{""P0_Q0"":null,""ambiguous"":2,""objects"":3,""invisible"":3,""chaos"":1}","","","","","","","","","","","","","","","","","[]","Nearby location of Tsukishima 2nd Elementary School (jp_tok-c_sch_a_3)","ChIJHxLhHn2JGGARc3bs4ikCKls","35.660785","139.775206","JP","TOK","CTR","SCH","1-chōme-13-13-1 Kachidoki, Chuo City, Tokyo 104-0054, Japan","jp_tok-c_sch_b_3","270","jp_tok-c_sch_b_3_270"
"trial","survey","9","129366","0.0-2.0-7.0","60ff005a566dbbeff7dd5f6f","626166b218b78fee4e9d8d4d","626181fddf08c737adabb494","6","19019","","{""P0_Q0"":null,""ambiguous"":4,""objects"":3,""invisible"":4,""chaos"":2}","","","","","","","","","","","","","","","","","[]","Jonan Daini Elementary School","ChIJOzDZZm6KGGARfmI0vkKc_Kw","35.6154264","139.7461583","JP","TOK","PER","SCH","3-chōme-4-5 Higashishinagawa, Shinagawa City, Tokyo 140-0002, Japan","jp_tok-p_sch_a_5","90","jp_tok-p_sch_a_5_90"
"trial","survey","10","149309","0.0-2.0-8.0","60ff005a566dbbeff7dd5f6f","626166b218b78fee4e9d8d4d","626181fddf08c737adabb494","6","19904","","{""P0_Q0"":null,""ambiguous"":4,""objects"":1,""invisible"":3,""chaos"":2}","","","","","","","","","","","","","","","","","[]","Nearby location of Tokyo Marriott Hotel (jp_tok-p_htl_a_high1)","ChIJsyQuX16KGGARNJl4U-sZQG0","35.620812","139.7355647","JP","TOK","PER","HTL","Japan, 〒140-0001 Tokyo, Shinagawa City, Kitashinagawa, 4-chōme−6−１７ セレソ御殿山","jp_tok-p_htl_b_high1","0","jp_tok-p_htl_b_high1_0"
"trial","survey","11","163114","0.0-2.0-9.0","60ff005a566dbbeff7dd5f6f","626166b218b78fee4e9d8d4d","626181fddf08c737adabb494","6","13719","","{""P0_Q0"":null,""ambiguous"":5,""objects"":4,""invisible"":5,""chaos"":5}","","","","","","","","","","","","","","","","","[]","Nearby location of Bunkyo Otsuka 3 Post Office (jp_tok-c_pos_a_7)","ChIJ8yJGd6-NGGARH10utNOusFo","35.7205268","139.7394333","JP","TOK","CTR","POS","3-chōme-35-1 Ōtsuka, Bunkyo City, Tokyo 112-0012, Japan","jp_tok-c_pos_b_7","90","jp_tok-c_pos_b_7_90"
"trial","survey","12","185252","0.0-2.0-10.0","60ff005a566dbbeff7dd5f6f","626166b218b78fee4e9d8d4d","626181fddf08c737adabb494","6","22060","","{""P0_Q0"":null,""ambiguous"":3,""objects"":1,""invisible"":2,""chaos"":2}","","","","","","","","","","","","","","","","","[]","Nearby location of Daiwa Roynet Hotel Tokyo-Osaki (jp_tok-p_htl_a_low2)","ChIJw8m7kPSKGGAREUfz_puYZs4","35.6168084","139.7277241","JP","TOK","PER","HTL","2-chōme-9-4 Ōsaki, Shinagawa City, Tokyo 141-0032, Japan","jp_tok-p_htl_b_low2","0","jp_tok-p_htl_b_low2_0"
"trial","survey","13","202273","0.0-2.0-11.0","60ff005a566dbbeff7dd5f6f","626166b218b78fee4e9d8d4d","626181fddf08c737adabb494","6","16958","","{""P0_Q0"":null,""ambiguous"":1,""objects"":2,""invisible"":2,""chaos"":2}","","","","","","","","","","","","","","","","","[]","Nearby location of Mercer Hotel (us_nyc-c_htl_a_ultra2)","ChIJBQxsB49ZwokRbGyFLxfuImc","40.7247177","-73.9975539","US","NYC","CTR","HTL","570 Broadway, New York, NY 10012, USA","us_nyc-c_htl_b_ultra2","270","us_nyc-c_htl_b_ultra2_270"
"trial","survey","14","216347","0.0-2.0-12.0","60ff005a566dbbeff7dd5f6f","626166b218b78fee4e9d8d4d","626181fddf08c737adabb494","6","14020","","{""P0_Q0"":null,""ambiguous"":1,""objects"":3,""invisible"":1,""chaos"":1}","","","","","","","","","","","","","","","","","[]","United States Postal Service","ChIJ7bddbC9ZwokRPh32cXCjIis","40.7414054","-74.0067214","US","NYC","CTR","POS","426A W 14th St, New York, NY 10014, USA","us_nyc-c_pos_a_8","180","us_nyc-c_pos_a_8_180"
"trial","survey","15","230079","0.0-2.0-13.0","60ff005a566dbbeff7dd5f6f","626166b218b78fee4e9d8d4d","626181fddf08c737adabb494","6","13714","","{""P0_Q0"":null,""ambiguous"":2,""objects"":3,""invisible"":2,""chaos"":2}","","","","","","","","","","","","","","","","","[]","Setagaya Okamoto Post Office","ChIJU6mt5gf0GGARS1eqIkjSKT4","35.6261891","139.6194159","JP","TOK","PER","POS","1-chōme-30-7 Okamoto, Setagaya City, Tokyo 157-0076, Japan","jp_tok-p_pos_a_1","270","jp_tok-p_pos_a_1_270"
"trial","survey","16","244704","0.0-2.0-14.0","60ff005a566dbbeff7dd5f6f","626166b218b78fee4e9d8d4d","626181fddf08c737adabb494","6","14586","","{""P0_Q0"":null,""ambiguous"":3,""objects"":1,""invisible"":3,""chaos"":2}","","","","","","","","","","","","","","","","","[]","Léman Manhattan Preparatory School","ChIJ1R3juBZawokRy34rGleDCJs","40.7060686","-74.0140159","US","NYC","CTR","SCH","1 Morris St, New York, NY 10004, USA","us_nyc-c_sch_a_8","270","us_nyc-c_sch_a_8_270"
"trial","survey","17","261391","0.0-2.0-15.0","60ff005a566dbbeff7dd5f6f","626166b218b78fee4e9d8d4d","626181fddf08c737adabb494","6","16633","","{""P0_Q0"":null,""ambiguous"":2,""objects"":2,""invisible"":2,""chaos"":2}","","","","","","","","","","","","","","","","","[]","The Hoxton Williamsburg","WVNYC801","40.7207","-73.95876","US","NYC","PER","HTL","97 WYTHE AVENUE, NEW YORK, NY 11249","us_nyc-p_htl_a_high2","180","us_nyc-p_htl_a_high2_180"
"trial","survey","18","284164","0.0-2.0-16.0","60ff005a566dbbeff7dd5f6f","626166b218b78fee4e9d8d4d","626181fddf08c737adabb494","6","22717","","{""P0_Q0"":null,""ambiguous"":4,""objects"":4,""invisible"":5,""chaos"":4}","","","","","","","","","","","","","","","","","[]","United States Postal Service","ChIJRXiunQP0wokRdMaoXdky9Do","40.8589783","-73.9311402","US","NYC","CTR","POS","4558 Broadway, New York, NY 10040, USA","us_nyc-c_pos_a_5","90","us_nyc-c_pos_a_5_90"
"trial","survey","19","303356","0.0-2.0-17.0","60ff005a566dbbeff7dd5f6f","626166b218b78fee4e9d8d4d","626181fddf08c737adabb494","6","19126","","{""P0_Q0"":null,""ambiguous"":5,""objects"":2,""invisible"":5,""chaos"":4}","","","","","","","","","","","","","","","","","[]","びわ湖畔リゾート 白浜荘","ChIJIeJgVfibAWAR-Jd7lsdIM-M","35.3054063","136.0367666","JP","HIK","HIK","HTL","2300-1 Adogawachō Shimoogawa, Takashima, Shiga 520-1223, Japan","jp_hik_htl_a_mid2","270","jp_hik_htl_a_mid2_270"
"trial","survey","20","330067","0.0-2.0-18.0","60ff005a566dbbeff7dd5f6f","626166b218b78fee4e9d8d4d","626181fddf08c737adabb494","6","26638","","{""P0_Q0"":null,""ambiguous"":2,""objects"":1,""invisible"":3,""chaos"":3}","","","","","","","","","","","","","","","","","[]","Nearby location of レジーナリゾートびわ湖長浜 (jp_hik_htl_a_high2)","ChIJJclVFRspAmARIuM3ZJ4DJj4","35.3795647","136.2582185","JP","HIK","HIK","HTL","1-6-2 Kanebōchō, Nagahama, Shiga 526-0068, Japan","jp_hik_htl_b_high2","90","jp_hik_htl_b_high2_90"
"trial","survey","21","342829","0.0-2.0-19.0","60ff005a566dbbeff7dd5f6f","626166b218b78fee4e9d8d4d","626181fddf08c737adabb494","6","12703","","{""P0_Q0"":null,""ambiguous"":5,""objects"":1,""invisible"":1,""chaos"":1}","","","","","","","","","","","","","","","","","[]","Flexstay Inn Shinagawa","HSTYOAIW","35.62213","139.7401","JP","TOK","PER","HTL","1-22-19, KITASHINAGAWA, TOKYO 140-0001","jp_tok-p_htl_a_mid2","270","jp_tok-p_htl_a_mid2_270"
"trial","survey","22","354251","0.0-2.0-20.0","60ff005a566dbbeff7dd5f6f","626166b218b78fee4e9d8d4d","626181fddf08c737adabb494","6","11363","","{""P0_Q0"":null,""ambiguous"":4,""objects"":1,""invisible"":4,""chaos"":4}","","","","","","","","","","","","","","","","","[]","Nearby location of 長浜BGホテル (us_chl_htl_a_mid1)","ChIJ2S_MbyspAmARkndCsjafTIg","35.3930344","136.2840486","JP","TOR","TOR","HTL","222-1 Kawasakichō, Nagahama, Shiga 526-0846, Japan","jp_tor_htl_b_mid1","0","jp_tor_htl_b_mid1_0"
"trial","survey","23","365556","0.0-2.0-21.0","60ff005a566dbbeff7dd5f6f","626166b218b78fee4e9d8d4d","626181fddf08c737adabb494","6","11252","","{""P0_Q0"":null,""ambiguous"":5,""objects"":3,""invisible"":5,""chaos"":5}","","","","","","","","","","","","","","","","","[]","Nearby location of Nerima Sakuradai Post Office (jp_tok-p_pos_a_5)","ChIJlUrhPw3tGGARYz3NEa-AcSY","35.7359141","139.6591792","JP","TOK","PER","POS","Japan, 〒176-0012 Tokyo, Nerima City, Toyotamakita, 4-chōme−12−６ 岡野マンション","jp_tok-p_pos_b_5","270","jp_tok-p_pos_b_5_270"
"trial","survey","24","377735","0.0-2.0-22.0","60ff005a566dbbeff7dd5f6f","626166b218b78fee4e9d8d4d","626181fddf08c737adabb494","6","12116","","{""P0_Q0"":null,""ambiguous"":1,""objects"":1,""invisible"":1,""chaos"":1}","","","","","","","","","","","","","","","","","[]","Wave Preparatory Elementary School","ChIJRdKuS69owokRVVzQsuzg6go","40.5995661","-73.7582473","US","NYC","PER","SCH","535 Briar Pl, Queens, NY 11691, USA","us_nyc-p_sch_a_4","270","us_nyc-p_sch_a_4_270"
"trial","survey","25","389385","0.0-2.0-23.0","60ff005a566dbbeff7dd5f6f","626166b218b78fee4e9d8d4d","626181fddf08c737adabb494","6","11577","","{""P0_Q0"":null,""ambiguous"":2,""objects"":2,""invisible"":3,""chaos"":3}","","","","","","","","","","","","","","","","","[]","Nearby location of P.S. 153 Adam Clayton Powell (us_nyc-c_sch_a_3)","ChIJ37jL5mL2wokRoeoE0seWQ44","40.8276038","-73.9486798","US","NYC","CTR","SCH","547 W 147th St, New York, NY 10031, USA","us_nyc-c_sch_b_3","180","us_nyc-c_sch_b_3_180"
"trial","survey","26","403220","0.0-2.0-24.0","60ff005a566dbbeff7dd5f6f","626166b218b78fee4e9d8d4d","626181fddf08c737adabb494","6","13778","","{""P0_Q0"":null,""ambiguous"":1,""objects"":3,""invisible"":2,""chaos"":2}","","","","","","","","","","","","","","","","","[]","Fairfield Inn and Suites by Marriott New York Manhattan Times Square","FNNYCFIF","40.75652","-73.99247","US","NYC","CTR","HTL","330 WEST 40TH STREET, NEW YORK, NY 10018","us_nyc-c_htl_a_mid1","180","us_nyc-c_htl_a_mid1_180"
"trial","survey","27","434645","0.0-2.0-25.0","60ff005a566dbbeff7dd5f6f","626166b218b78fee4e9d8d4d","626181fddf08c737adabb494","6","31372","","{""P0_Q0"":null,""ambiguous"":3,""objects"":2,""invisible"":2,""chaos"":3}","","","","","","","","","","","","","","","","","[]","Nakano Sun Cuore Post Office","ChIJcTw2u5DyGGAReXXGTvjxlhw","35.7089211","139.6647475","JP","TOK","PER","POS","Japan, 〒164-0001 Tokyo, Nakano City, Nakano, 4-chōme−3−１ 地下１階","jp_tok-p_pos_a_2","270","jp_tok-p_pos_a_2_270"
"trial","survey","28","451060","0.0-2.0-26.0","60ff005a566dbbeff7dd5f6f","626166b218b78fee4e9d8d4d","626181fddf08c737adabb494","6","16368","","{""P0_Q0"":null,""ambiguous"":3,""objects"":4,""invisible"":3,""chaos"":4}","","","","","","","","","","","","","","","","","[]","Nearby location of Toshima Minami-Nagasaki Post Office (jp_tok-c_pos_a_4)","ChIJW9I5jqnyGGAR4LJcH4_S0to","35.725497","139.6854672","JP","TOK","CTR","POS","4-chōme-29-3 Minaminagasaki, Toshima City, Tokyo 171-0052, Japan","jp_tok-c_pos_b_4","270","jp_tok-c_pos_b_4_270"
"trial","survey","29","467761","0.0-2.0-27.0","60ff005a566dbbeff7dd5f6f","626166b218b78fee4e9d8d4d","626181fddf08c737adabb494","6","16646","","{""P0_Q0"":null,""ambiguous"":4,""objects"":1,""invisible"":3,""chaos"":4}","","","","","","","","","","","","","","","","","[]","Katsushika City Iizuka Elementary School","ChIJXWuTk2CFGGARG2Rud6f0E18","35.7767025","139.8582864","JP","TOK","PER","SCH","1-chōme-13-1 Minamimizumoto, Katsushika City, Tokyo 125-0035, Japan","jp_tok-p_sch_a_3","90","jp_tok-p_sch_a_3_90"
"trial","survey","30","478010","0.0-2.0-28.0","60ff005a566dbbeff7dd5f6f","626166b218b78fee4e9d8d4d","626181fddf08c737adabb494","6","10199","","{""P0_Q0"":null,""ambiguous"":5,""objects"":5,""invisible"":5,""chaos"":5}","","","","","","","","","","","","","","","","","[]","PS 146 Anna M. Short School","ChIJtwKR6hz2wokRPs0Ro5kWXS0","40.7897123","-73.9393805","US","NYC","CTR","SCH","421 E 106th St #4896, New York, NY 10029, USA","us_nyc-c_sch_a_5","270","us_nyc-c_sch_a_5_270"
"trial","survey","31","499297","0.0-2.0-29.0","60ff005a566dbbeff7dd5f6f","626166b218b78fee4e9d8d4d","626181fddf08c737adabb494","6","21242","","{""P0_Q0"":null,""ambiguous"":4,""objects"":3,""invisible"":3,""chaos"":3}","","","","","","","","","","","","","","","","","[]","須賀谷温泉","ChIJ_4AJx3YmAmARdbO9N7D3Ofo","35.454895","136.281751","JP","TOR","TOR","HTL","36 Sugatanichō, Nagahama, Shiga 526-0277, Japan","jp_tor_htl_a_high1","90","jp_tor_htl_a_high1_90"
"trial","survey","32","511763","0.0-2.0-30.0","60ff005a566dbbeff7dd5f6f","626166b218b78fee4e9d8d4d","626181fddf08c737adabb494","6","12414","","{""P0_Q0"":null,""ambiguous"":4,""objects"":1,""invisible"":4,""chaos"":5}","","","","","","","","","","","","","","","","","[]","Nearby location of Quality Inn and Suites Ann Arbor Hwy 23 (us_arb_htl_a_mid2)","ChIJUf9k3i2vPIgRY6-MziLWsGc","42.25094","-83.682429","US","ARB","ARB","HTL","2525 Gross Rd, Ann Arbor, MI 48108, USA","us_arb_htl_b_mid2","180","us_arb_htl_b_mid2_180"
"trial","survey","33","528471","0.0-2.0-31.0","60ff005a566dbbeff7dd5f6f","626166b218b78fee4e9d8d4d","626181fddf08c737adabb494","6","16654","","{""P0_Q0"":null,""ambiguous"":3,""objects"":4,""invisible"":3,""chaos"":4}","","","","","","","","","","","","","","","","","[]","Nearby location of Yotsuya Station Post Office (jp_tok-c_pos_a_3)","ChIJ5QGWpIuMGGARM3syjI6N6t8","35.6864179","139.7285004","JP","TOK","CTR","POS","1-chōme-8-3 Yotsuya, Shinjuku City, Tokyo 160-0004, Japan","jp_tok-c_pos_b_3","0","jp_tok-c_pos_b_3_0"
"trial","survey","34","538440","0.0-2.0-32.0","60ff005a566dbbeff7dd5f6f","626166b218b78fee4e9d8d4d","626181fddf08c737adabb494","6","9925","","{""P0_Q0"":null,""ambiguous"":4,""objects"":1,""invisible"":5,""chaos"":4}","","","","","","","","","","","","","","","","","[]","Nearby location of Comfort Inn (us_chl_htl_a_low1)","ChIJ7WwDQLjOPIgRZf5dwFJ3f34","42.2988455","-84.0286729","US","CHL","CHL","HTL","1600 Commerce Park Dr STE 300, Chelsea, MI 48118, USA","us_chl_htl_b_low1","270","us_chl_htl_b_low1_270"
"trial","survey","35","553233","0.0-2.0-33.0","60ff005a566dbbeff7dd5f6f","626166b218b78fee4e9d8d4d","626181fddf08c737adabb494","6","14736","","{""P0_Q0"":null,""ambiguous"":3,""objects"":3,""invisible"":4,""chaos"":3}","","","","","","","","","","","","","","","","","[]","Hotel Kaito","ChIJSw_1QTuSAWARZz9bnjVtA6Q","35.3989028","136.0315856","JP","HIK","HIK","HTL","Japan, 〒520-1631 Shiga, Takashima, Imazuchō Nakoji, 1-chōme−６−１０","jp_hik_htl_a_low2","270","jp_hik_htl_a_low2_270"
"trial","survey","36","577402","0.0-2.0-34.0","60ff005a566dbbeff7dd5f6f","626166b218b78fee4e9d8d4d","626181fddf08c737adabb494","6","24113","","{""P0_Q0"":null,""ambiguous"":3,""objects"":5,""invisible"":4,""chaos"":3}","","","","","","","","","","","","","","","","","[]","HOTEL ALLAMANDA AOYAMA","FGTYOHAA","35.67122","139.71765","JP","TOK","CTR","HTL","2-7-13 KITA AOYAMA MINATO-KU, TOKYO 107 0061","jp_tok-c_htl_a_high1","0","jp_tok-c_htl_a_high1_0"
"half-way","html-button-response","37","593170","0.0-2.0-35.0","60ff005a566dbbeff7dd5f6f","626166b218b78fee4e9d8d4d","626181fddf08c737adabb494","6","null","
            <h3>You are now half way through the study.</h3>
            <p>Please take a quick, 15-second break before you continue.</p>
            <img src='assets/img/countdown-15.gif'>
            <p>The study will automatically advance forward after the countdown is complete. However, you may click ""Next"" to advance forward now if you wish.</p>
        ","null","","","","","","","","","","","","","","","","","","","","","","","","","","","","",""
"attention-check","survey","38","602178","0.0-2.0-36.0","60ff005a566dbbeff7dd5f6f","626166b218b78fee4e9d8d4d","626181fddf08c737adabb494","6","8930","","{""P0_Q0"":null,""ambiguous"":null,""objects"":null,""invisible"":null,""chaos"":null}","","","","","","","","","","","","","","","","","[]","","","","","","","","","","","",""
"trial","survey","39","616201","0.0-2.0-37.0","60ff005a566dbbeff7dd5f6f","626166b218b78fee4e9d8d4d","626181fddf08c737adabb494","6","13960","","{""P0_Q0"":null,""ambiguous"":4,""objects"":5,""invisible"":5,""chaos"":5}","","","","","","","","","","","","","","","","","[]","United States Postal Service","ChIJbSwe0opYwokRPnmsjLkkilA","40.8276833","-73.9365073","US","NYC","CTR","POS","99 Macombs Pl, New York, NY 10039, USA","us_nyc-c_pos_a_3","270","us_nyc-c_pos_a_3_270"
"trial","survey","40","626413","0.0-2.0-38.0","60ff005a566dbbeff7dd5f6f","626166b218b78fee4e9d8d4d","626181fddf08c737adabb494","6","10162","","{""P0_Q0"":null,""ambiguous"":2,""objects"":1,""invisible"":1,""chaos"":2}","","","","","","","","","","","","","","","","","[]","Bronx Charter School for Excellence 3","ChIJg2kj5avzwokRaKO_rPdPfu8","40.8883786","-73.8632703","US","NYC","PER","SCH","3956 Carpenter Ave, Bronx, NY 10466, USA","us_nyc-p_sch_a_6","90","us_nyc-p_sch_a_6_90"
"trial","survey","41","637763","0.0-2.0-39.0","60ff005a566dbbeff7dd5f6f","626166b218b78fee4e9d8d4d","626181fddf08c737adabb494","6","11303","","{""P0_Q0"":null,""ambiguous"":4,""objects"":2,""invisible"":5,""chaos"":4}","","","","","","","","","","","","","","","","","[]","The Westin Tokyo","WITYOTOK","35.64174","139.71551","JP","TOK","PER","HTL","1 4 1 MITA MEGURO KU, TOKYO 1538580","jp_tok-p_htl_a_high2","270","jp_tok-p_htl_a_high2_270"
"trial","survey","42","647690","0.0-2.0-40.0","60ff005a566dbbeff7dd5f6f","626166b218b78fee4e9d8d4d","626181fddf08c737adabb494","6","9855","","{""P0_Q0"":null,""ambiguous"":5,""objects"":3,""invisible"":5,""chaos"":5}","","","","","","","","","","","","","","","","","[]","Nearby location of BASIS Independent Manhattan (us_nyc-c_sch_a_1)","ChIJ5ZYR6Sb2wokRg8Qj29B4aF4","40.7956348","-73.9670782","US","NYC","CTR","SCH","120 W 100th St, New York, NY 10025, USA","us_nyc-c_sch_b_1","0","us_nyc-c_sch_b_1_0"
"trial","survey","43","659047","0.0-2.0-41.0","60ff005a566dbbeff7dd5f6f","626166b218b78fee4e9d8d4d","626181fddf08c737adabb494","6","11295","","{""P0_Q0"":null,""ambiguous"":3,""objects"":4,""invisible"":4,""chaos"":4}","","","","","","","","","","","","","","","","","[]","Nearby location of Yonehara Shiritsu Yonehara Elementary School (jp_hik_sch_a_1)","ChIJHY8tRnsrAmARDrvbTNjR_tg","35.3153923","136.2799377","JP","HIK","HIK","SCH","Japan, 〒521-0011 Shiga, Maibara, Nakatara, ６０３−１ Sun Village 米原","jp_hik_sch_b_1","90","jp_hik_sch_b_1_90"
"trial","survey","44","671253","0.0-2.0-42.0","60ff005a566dbbeff7dd5f6f","626166b218b78fee4e9d8d4d","626181fddf08c737adabb494","6","12163","","{""P0_Q0"":null,""ambiguous"":2,""objects"":1,""invisible"":1,""chaos"":3}","","","","","","","","","","","","","","","","","[]","Léman Manhattan Preparatory School","ChIJ1R3juBZawokRy34rGleDCJs","40.7060686","-74.0140159","US","NYC","CTR","SCH","1 Morris St, New York, NY 10004, USA","us_nyc-c_sch_a_8","180","us_nyc-c_sch_a_8_180"
"trial","survey","45","680351","0.0-2.0-43.0","60ff005a566dbbeff7dd5f6f","626166b218b78fee4e9d8d4d","626181fddf08c737adabb494","6","9049","","{""P0_Q0"":null,""ambiguous"":2,""objects"":1,""invisible"":3,""chaos"":3}","","","","","","","","","","","","","","","","","[]","Mandarin Oriental New York","MONYCMO1","40.7689","-73.98305","US","NYC","CTR","HTL","80  COLUMBUS CIRCLE AT 60TH STREET, NEW YORK, NY 10023","us_nyc-c_htl_a_ultra1","0","us_nyc-c_htl_a_ultra1_0"
"trial","survey","46","691871","0.0-2.0-44.0","60ff005a566dbbeff7dd5f6f","626166b218b78fee4e9d8d4d","626181fddf08c737adabb494","6","11478","","{""P0_Q0"":null,""ambiguous"":2,""objects"":1,""invisible"":3,""chaos"":3}","","","","","","","","","","","","","","","","","[]","Nearby location of United States Postal Service (us_nyc-c_pos_a_7)","ChIJjVTn2xD2wokRxjWBnF0UGVg","40.8023565","-73.9528115","US","NYC","CTR","POS","113 St Nicholas Ave, New York, NY 10026, USA","us_nyc-c_pos_b_7","180","us_nyc-c_pos_b_7_180"
"trial","survey","47","705136","0.0-2.0-45.0","60ff005a566dbbeff7dd5f6f","626166b218b78fee4e9d8d4d","626181fddf08c737adabb494","6","13181","","{""P0_Q0"":null,""ambiguous"":2,""objects"":2,""invisible"":4,""chaos"":3}","","","","","","","","","","","","","","","","","[]","Nearby location of Kanponoyado Hikone (jp_hik_htl_a_mid1)","ChIJ52LxtyYrAmARRzLfR851uZY","35.2879027","136.2510942","JP","HIK","HIK","HTL","1090 Matsubarachō, Hikone, Shiga 522-0002, Japan","jp_hik_htl_b_mid1","270","jp_hik_htl_b_mid1_270"
"trial","survey","48","714721","0.0-2.0-46.0","60ff005a566dbbeff7dd5f6f","626166b218b78fee4e9d8d4d","626181fddf08c737adabb494","6","9530","","{""P0_Q0"":null,""ambiguous"":4,""objects"":2,""invisible"":5,""chaos"":3}","","","","","","","","","","","","","","","","","[]","Nearby location of Hilton New York JFK Airport, NY (us_nyc-p_htl_a_mid2)","ChIJvcyCtx9nwokREAp7AP5NM9s","40.6672608","-73.7964601","US","NYC","PER","HTL","135-25 142nd St, Queens, NY 11436, USA","us_nyc-p_htl_b_mid2","270","us_nyc-p_htl_b_mid2_270"
"trial","survey","49","725171","0.0-2.0-47.0","60ff005a566dbbeff7dd5f6f","626166b218b78fee4e9d8d4d","626181fddf08c737adabb494","6","10400","","{""P0_Q0"":null,""ambiguous"":5,""objects"":4,""invisible"":5,""chaos"":5}","","","","","","","","","","","","","","","","","[]","United States Postal Service","ChIJRXiunQP0wokRdMaoXdky9Do","40.8589783","-73.9311402","US","NYC","CTR","POS","4558 Broadway, New York, NY 10040, USA","us_nyc-c_pos_a_5","270","us_nyc-c_pos_a_5_270"
"trial","survey","50","733783","0.0-2.0-48.0","60ff005a566dbbeff7dd5f6f","626166b218b78fee4e9d8d4d","626181fddf08c737adabb494","6","8569","","{""P0_Q0"":null,""ambiguous"":5,""objects"":5,""invisible"":5,""chaos"":5}","","","","","","","","","","","","","","","","","[]","Nearby location of ORCHARD STREET HOTEL (us_nyc-c_htl_a_low1)","ChIJ8TquxYZZwokRPgCEBRlBnXM","40.7198222","-73.9898421","US","NYC","CTR","HTL","130 Allen St, New York, NY 10002, USA","us_nyc-c_htl_b_low1","0","us_nyc-c_htl_b_low1_0"
"trial","survey","51","744003","0.0-2.0-49.0","60ff005a566dbbeff7dd5f6f","626166b218b78fee4e9d8d4d","626181fddf08c737adabb494","6","10166","","{""P0_Q0"":null,""ambiguous"":5,""objects"":5,""invisible"":5,""chaos"":5}","","","","","","","","","","","","","","","","","[]","Ryōgoku Post Office","ChIJ-792HbOOGGARe1sZkDax64U","35.6954419","139.7857167","JP","TOK","CTR","POS","2-chōme-27-12 Higashinihonbashi, Chuo City, Tokyo 103-0004, Japan","jp_tok-c_pos_a_5","90","jp_tok-c_pos_a_5_90"
"trial","survey","52","756193","0.0-2.0-50.0","60ff005a566dbbeff7dd5f6f","626166b218b78fee4e9d8d4d","626181fddf08c737adabb494","6","12168","","{""P0_Q0"":null,""ambiguous"":5,""objects"":5,""invisible"":5,""chaos"":4}","","","","","","","","","","","","","","","","","[]","Nearby location of United States Postal Service (us_nyc-c_pos_a_6)","ChIJ63f0hz9ZwokRTruThu3Ng6s","40.7682731","-73.9822808","US","NYC","CTR","POS","15 Columbus Cir, New York, NY 10019, USA","us_nyc-c_pos_b_6","180","us_nyc-c_pos_b_6_180"
"trial","survey","53","770453","0.0-2.0-51.0","60ff005a566dbbeff7dd5f6f","626166b218b78fee4e9d8d4d","626181fddf08c737adabb494","6","14206","","{""P0_Q0"":null,""ambiguous"":3,""objects"":1,""invisible"":3,""chaos"":4}","","","","","","","","","","","","","","","","","[]","Nearby location of United States Postal Service (us_nyc-p_pos_a_2)","ChIJLSVr_e-JwokR4naG8qzZU4M","40.769638","-73.735929","US","NYC","PER","POS","252-02 Northern Blvd, Flushing, NY 11362, USA","us_nyc-p_pos_b_2","180","us_nyc-p_pos_b_2_180"
"trial","survey","54","780629","0.0-2.0-52.0","60ff005a566dbbeff7dd5f6f","626166b218b78fee4e9d8d4d","626181fddf08c737adabb494","6","10120","","{""P0_Q0"":null,""ambiguous"":1,""objects"":2,""invisible"":2,""chaos"":2}","","","","","","","","","","","","","","","","","[]","Nearby location of Aman Tokyo (jp_tok-c_htl_a_ultra1)","ChIJ5W6CKziLGGAR73lO8PA1mRk","35.6844083","139.7640849","JP","TOK","CTR","HTL","1-chōme-3-4 Marunouchi, Chiyoda City, Tokyo 100-0005, Japan","jp_tok-c_htl_b_ultra1","270","jp_tok-c_htl_b_ultra1_270"
"trial","survey","55","790436","0.0-2.0-53.0","60ff005a566dbbeff7dd5f6f","626166b218b78fee4e9d8d4d","626181fddf08c737adabb494","6","9740","","{""P0_Q0"":null,""ambiguous"":3,""objects"":3,""invisible"":4,""chaos"":3}","","","","","","","","","","","","","","","","","[]","Hikoneatohoteru","ChIJcSdJDVfUA2ARZ1X1w0kURVw","35.2392938","136.255227","JP","HIK","HIK","HTL","1707-1 Takamiyachō, Hikone, Shiga 522-0201, Japan","jp_hik_htl_a_low1","90","jp_hik_htl_a_low1_90"
"trial","survey","56","800537","0.0-2.0-54.0","60ff005a566dbbeff7dd5f6f","626166b218b78fee4e9d8d4d","626181fddf08c737adabb494","6","10057","","{""P0_Q0"":null,""ambiguous"":3,""objects"":2,""invisible"":3,""chaos"":3}","","","","","","","","","","","","","","","","","[]","Mitsui Garden Kyobashi Tokyo","UITYOMGK","35.67906","139.77122","JP","TOK","CTR","HTL","1-3-6, KYOBASHI, CHUO-KU, TOKYO 1040031","jp_tok-c_htl_a_low2","0","jp_tok-c_htl_a_low2_0"
"trial","survey","57","811949","0.0-2.0-55.0","60ff005a566dbbeff7dd5f6f","626166b218b78fee4e9d8d4d","626181fddf08c737adabb494","6","11359","","{""P0_Q0"":null,""ambiguous"":5,""objects"":4,""invisible"":5,""chaos"":5}","","","","","","","","","","","","","","","","","[]","Kotō 3rd Elementary School","ChIJyWBTvO3XA2ARubFCKa9mR4A","35.130888","136.225113","JP","HIK","HIK","SCH","340 Kotakarichō, Higashiomi, Shiga 527-0125, Japan","jp_hik_sch_a_3","90","jp_hik_sch_a_3_90"
"trial","survey","58","824863","0.0-2.0-56.0","60ff005a566dbbeff7dd5f6f","626166b218b78fee4e9d8d4d","626181fddf08c737adabb494","6","12865","","{""P0_Q0"":null,""ambiguous"":4,""objects"":2,""invisible"":5,""chaos"":3}","","","","","","","","","","","","","","","","","[]","Kanponoyado Hikone","ChIJlbdbLicrAmARI9pD-bcXKlg","35.2872369","136.2493256","JP","HIK","HIK","HTL","3759 Matsubarachō, Hikone, Shiga 522-0002, Japan","jp_hik_htl_a_mid1","90","jp_hik_htl_a_mid1_90"
"trial","survey","59","852504","0.0-2.0-57.0","60ff005a566dbbeff7dd5f6f","626166b218b78fee4e9d8d4d","626181fddf08c737adabb494","6","27621","","{""P0_Q0"":null,""ambiguous"":5,""objects"":2,""invisible"":4,""chaos"":4}","","","","","","","","","","","","","","","","","[]","MyStays Asakusa","HSTYOACG","35.70393","139.79741","JP","TOK","PER","HTL","1-21-11, HONJO, TOKYO 130-0004","jp_tok-p_htl_a_low1","270","jp_tok-p_htl_a_low1_270"
"trial","survey","60","865290","0.0-2.0-58.0","60ff005a566dbbeff7dd5f6f","626166b218b78fee4e9d8d4d","626181fddf08c737adabb494","6","12730","","{""P0_Q0"":null,""ambiguous"":4,""objects"":3,""invisible"":4,""chaos"":4}","","","","","","","","","","","","","","","","","[]","Wave Preparatory Elementary School","ChIJRdKuS69owokRVVzQsuzg6go","40.5995661","-73.7582473","US","NYC","PER","SCH","535 Briar Pl, Queens, NY 11691, USA","us_nyc-p_sch_a_4","90","us_nyc-p_sch_a_4_90"
"trial","survey","61","875110","0.0-2.0-59.0","60ff005a566dbbeff7dd5f6f","626166b218b78fee4e9d8d4d","626181fddf08c737adabb494","6","9770","","{""P0_Q0"":null,""ambiguous"":3,""objects"":3,""invisible"":3,""chaos"":3}","","","","","","","","","","","","","","","","","[]","Mercer Hotel","WVNYCMER","40.72603","-73.99856","US","NYC","CTR","HTL","147 MERCER STREET , NEW YORK, NY 10012","us_nyc-c_htl_a_ultra2","180","us_nyc-c_htl_a_ultra2_180"
"trial","survey","62","886167","0.0-2.0-60.0","60ff005a566dbbeff7dd5f6f","626166b218b78fee4e9d8d4d","626181fddf08c737adabb494","6","11016","","{""P0_Q0"":null,""ambiguous"":5,""objects"":5,""invisible"":4,""chaos"":4}","","","","","","","","","","","","","","","","","[]","Nearby location of The Pearl NYC (us_nyc-c_htl_a_high1)","ChIJH25PJ-dZwokRj_-5BHZLdE0","40.7600987","-73.9843757","US","NYC","CTR","HTL","1596 Broadway, New York, NY 10019, USA","us_nyc-c_htl_b_high1","90","us_nyc-c_htl_b_high1_90"
"trial","survey","63","894129","0.0-2.0-61.0","60ff005a566dbbeff7dd5f6f","626166b218b78fee4e9d8d4d","626181fddf08c737adabb494","6","7915","","{""P0_Q0"":null,""ambiguous"":4,""objects"":2,""invisible"":5,""chaos"":3}","","","","","","","","","","","","","","","","","[]","Manually Updated Jittered SV for Nearby location of Hotel Villa Fontaine Nihombashi-Hakozaki (jp_tok-c_htl_a_low1) (jp_tok-c_htl_b_low1)","ChIJcZnDxKeJGGARHOldLPKzIl8","35.682421","139.78596","JP","TOK","CTR","HTL","2-chōme-2 Nihonbashikakigarachō, Chuo City, Tokyo 103-0014, Japan","jp_tok-c_htl_b_low1","270","jp_tok-c_htl_b_low1_270"
"trial","survey","64","905433","0.0-2.0-62.0","60ff005a566dbbeff7dd5f6f","626166b218b78fee4e9d8d4d","626181fddf08c737adabb494","6","11248","","{""P0_Q0"":null,""ambiguous"":5,""objects"":3,""invisible"":4,""chaos"":4}","","","","","","","","","","","","","","","","","[]","The Baltic House","XTNYC653","40.682","-73.985","US","NYC","PER","HTL","489 BALTIC STREET, BROOKLYN, NY 11217","us_nyc-p_htl_a_mid1","0","us_nyc-p_htl_a_mid1_0"
"trial","survey","65","915324","0.0-2.0-63.0","60ff005a566dbbeff7dd5f6f","626166b218b78fee4e9d8d4d","626181fddf08c737adabb494","6","9822","","{""P0_Q0"":null,""ambiguous"":4,""objects"":3,""invisible"":4,""chaos"":4}","","","","","","","","","","","","","","","","","[]","Nearby location of United States Postal Service (us_nyc-p_pos_a_4)","ChIJQdQ0qElawokRA-jOMdpWwLc","40.6945583","-73.9912686","US","NYC","PER","POS","154 Pierrepont St, Brooklyn, NY 11201, USA","us_nyc-p_pos_b_4","90","us_nyc-p_pos_b_4_90"
"trial","survey","66","934991","0.0-2.0-64.0","60ff005a566dbbeff7dd5f6f","626166b218b78fee4e9d8d4d","626181fddf08c737adabb494","6","19631","","{""P0_Q0"":null,""ambiguous"":4,""objects"":4,""invisible"":5,""chaos"":3}","","","","","","","","","","","","","","","","","[]","Nearby location of Bunkyo Otsuka 3 Post Office (jp_tok-c_pos_a_7)","ChIJ8yJGd6-NGGARH10utNOusFo","35.7205268","139.7394333","JP","TOK","CTR","POS","3-chōme-35-1 Ōtsuka, Bunkyo City, Tokyo 112-0012, Japan","jp_tok-c_pos_b_7","180","jp_tok-c_pos_b_7_180"
"trial","survey","67","948386","0.0-2.0-65.0","60ff005a566dbbeff7dd5f6f","626166b218b78fee4e9d8d4d","626181fddf08c737adabb494","6","13335","","{""P0_Q0"":null,""ambiguous"":3,""objects"":4,""invisible"":4,""chaos"":4}","","","","","","","","","","","","","","","","","[]","Nearby location of William O'Shea Campus (us_nyc-c_sch_a_6)","ChIJpefuOY9YwokR-Pk3vGiQNI4","40.7819913","-73.9762638","US","NYC","CTR","SCH","118 W 79th St, New York, NY 10024, USA","us_nyc-c_sch_b_6","270","us_nyc-c_sch_b_6_270"
"trial","survey","68","958906","0.0-2.0-66.0","60ff005a566dbbeff7dd5f6f","626166b218b78fee4e9d8d4d","626181fddf08c737adabb494","6","10480","","{""P0_Q0"":null,""ambiguous"":5,""objects"":4,""invisible"":5,""chaos"":4}","","","","","","","","","","","","","","","","","[]","Red Roof PLUS Ann Arbor-Univ North","RFARB045","42.30672","-83.69025","US","ARB","ARB","HTL","3621 PLYMOUTH ROAD, ANN ARBOR, MI 48105","us_arb_htl_a_low1","180","us_arb_htl_a_low1_180"
"trial","survey","69","971357","0.0-2.0-67.0","60ff005a566dbbeff7dd5f6f","626166b218b78fee4e9d8d4d","626181fddf08c737adabb494","6","12374","","{""P0_Q0"":null,""ambiguous"":3,""objects"":2,""invisible"":4,""chaos"":3}","","","","","","","","","","","","","","","","","[]","Nearby location of United States Postal Service (us_nyc-c_pos_a_3)","ChIJpWHPQID2wokRneXgmeORzP4","40.8291253","-73.9375732","US","NYC","CTR","POS","2925 Frederick Douglass Blvd, New York, NY 10039, USA","us_nyc-c_pos_b_3","0","us_nyc-c_pos_b_3_0"
"demographics","survey-html-form","70","980059","0.0-2.0-68.0","60ff005a566dbbeff7dd5f6f","626166b218b78fee4e9d8d4d","626181fddf08c737adabb494","6","8691","","{""age"":""26"",""gender"":""female"",""gender-self-describe"":"""",""zipcode"":""02144""}","","","","","","","","","","","","","","","","","","","","","","","","","","","","",""
"demographics","survey","71","984819","0.0-2.0-69.0","60ff005a566dbbeff7dd5f6f","626166b218b78fee4e9d8d4d","626181fddf08c737adabb494","6","4652","","{""P0_Q0"":null,""outsideUS"":""No"",""outsideUS_years"":""""}","","","","","","","","","","","","","","","","","[]","","","","","","","","","","","",""
"end-survey","survey-text","72","990349","0.0-2.0-70.0","60ff005a566dbbeff7dd5f6f","626166b218b78fee4e9d8d4d","626181fddf08c737adabb494","6","5484","","{""Q0"":""""}","","","","","","","","","","","","","","","","","","","","","","","","","","","","",""
