"task","trial_type","trial_index","time_elapsed","internal_node_id","subject_id","study_id","session_id","group","rt","stimulus","response","width","height","webaudio","browser","browser_version","mobile","os","fullscreen","vsync_rate","webcam","microphone","success","timeout","failed_images","failed_audio","failed_video","accuracy","name","place_id","lat","lng","culture","loc1","loc2","loct","address","loc_id_prev","angle","loc_id"
"pavlovia-init","pavlovia","0","1000","0.0-0.0","613a12013df4824a86f7e852","625e209c10a247530e1c6964","06asx4l9e7z","5","","","","","","","","","","","","","","","","","","","","","","","","","","","","","","","",""
"consent","html-button-response","1","2902","0.0-1.0","613a12013df4824a86f7e852","625e209c10a247530e1c6964","06asx4l9e7z","5","1899","
        <div style=""font-size: 80%; max-width:700px"">
            <h2>Informed Consent</h2><br>
        
            <div style=""text-align: left"">
            <h3>Streetscape Perceptions</h3>
            <b>HUM00189138</b>
            <br><hr>
        
            <h4>DESCRIPTION</h4>
            <p>
                In this study, you will view Google Street View images. You will then answer questions about your impressions of the streetscapes presented in those images.
            </p><br>
        
            <h4>TIME INVOLVEMENT</h4>
            <p>Your participation will take approximately 30 minutes.</p><br>
        
            <h4>RISKS AND BENEFITS</h4>
            <p>
                The risks associated with this study are minimal. The benefits which may reasonably be expected to result from this study are none.  We cannot and do not guarantee or promise that you will receive any benefits from this study. 
            </p><br>
        
            <h4>PAYMENTS</h4>
            <p>You will be paid <b>$5.00</b> for your participation.</p><br>
        
            <h4>SUBJECT'S RIGHTS</h4>
            <p>
                If you have read this form and have decided to participate in this project, please understand your participation is voluntary and you have the right to withdraw your consent or discontinue participation at any time without penalty or loss of benefits to which you are otherwise entitled.  The alternative is not to participate.  You have the right to refuse to answer particular questions.  
            </p>
        
            <p>
                Your individual privacy will be maintained in all published and written data resulting from the study. Your responses will be kept confidential: you are given a participant code, and no one, not even the research team, can match that code with your identity. Your collected information may also be shared with other researchers as part of our dataset.
            </p><br>
        
            <h4>CONTACT INFORMATION</h4>
            <p>
                Questions: If you have any questions, concerns or complaints about this research, its procedures, risks and benefits, contact the Protocol Director, Nicholas Camp, npcamp@umich.edu, (443) 851-6783.
            </p>
        
            <p>
                If you have questions about your rights as a research participant, or wish to obtain information, ask questions or discuss any concerns about this study with someone other than the researcher(s), please contact the following:
                <br><br>
        
                University of Michigan<br>
                Health Sciences and Behavioral Sciences Institutional Review Board
                (IRB-HSBS)<br>
                2800 Plymouth Road <br>
                Building 520, Room 1169 <br>
                Ann Arbor, MI 48109-2800 <br>
                Telephone: 734-936-0933 or toll free (866) 936-0933 <br>
                Fax: 734-936-1852 <br />
                E-mail: irbhsbs@umich.edu <br>
            </p>
        
            <p>
                You can also contact the University of Michigan Compliance Hotline at 1-866-990-0111. You may also print this consent form to keep.
            </p>
            <br>
        
            <div class=""alert alert-warning""><b>
                Do you consent to participate in this study? If you consent to participate in this study, please click “Accept and continue.”
            </b></div>
            </div>
        </div>
    ","1","","","","","","","","","","","","","","","","","","","","","","","","","","","","",""
"browser-check","browser-check","2","3894","0.0-2.0-0.0","613a12013df4824a86f7e852","625e209c10a247530e1c6964","06asx4l9e7z","5","","","","1440","757","true","chrome","100.0.4896","false","Mac OS","true","60.89","true","true","","","","","","","","","","","","","","","","","",""
"","preload","3","4877","0.0-2.0-1.0","613a12013df4824a86f7e852","625e209c10a247530e1c6964","06asx4l9e7z","5","","","","","","","","","","","","","","","true","false","[]","[]","[]","","","","","","","","","","","","",""
"instructions","html-button-response","4","5633","0.0-2.0-2.0","613a12013df4824a86f7e852","625e209c10a247530e1c6964","06asx4l9e7z","5","754","
        <div class=""text-container"">
            <h1>Welcome to the study!</h1>
            
            <div class=""text-left"">
                <p>
                    In this study, we are interested in how people think about different Google Street View images. Google Street View takes pictures of streets used for Google Earth and Google Maps. You’ll see Google Street View images of different places and answer some questions about each one.
                </p>
            </div>
            
            <img src='
            https://maps.googleapis.com/maps/api/streetview?size=640x320
            &location=37.783631,-122.432766
            &heading=80
            &pitch=2
            &fov=100
            &radius=150
            &key=AIzaSyC2OxRDg6qlzZDj7j0UAD2XyE0qWokLvvs
            &source=outdoor'>
        
            <br>
        <br>
    ","0","","","","","","","","","","","","","","","","","","","","","","","","","","","","",""
"instructions","html-button-response","5","7583","0.0-2.0-3.0","613a12013df4824a86f7e852","625e209c10a247530e1c6964","06asx4l9e7z","5","1646","
        <style>
            img.small {
            max-width: 100px;
            }
            li {
            text-indent: 40px;
            }
        </style>

        <div class=""text-container text-left"">
            <p>For each picture, we’d like your impressions of the scene:</p>
            
            <hr>
                Are there <b>clear, distinct boundaries</b> between objects in the scene, or are the <b>boundaries ambiguous or unclear</b>?
                
                <li>clear, distinct boundaries: <img class=""small"" src=""assets/img/ambiguous-low.png""></li>
                <li>ambiguous or unclear boundaries: <img class=""small"" src=""assets/img/ambiguous-high.png""></li>
            <hr>
            <br>
                Are there <b>only a few different objects</b> in the scene, or is there <b>a large number</b>?
            <br><br>
            <hr>
                Are only <b>a few parts</b> of the scene <b>invisible or obscured</b>, or are <b>many parts invisible or obscured</b>?
                
                <li>a few parts invisible or obscured: <img class=""small"" src=""assets/img/invisible-low.png""></li>
                <li>many parts invisible or obscured: <img class=""small"" src=""assets/img/invisible-high.png""></li>
            <hr>
            <br>
                Does the scene look <b>organized</b> or <b>chaotic</b> to you?
            <br><br>
            <hr>
            
            <p>
                There are no right or wrong answers: we are interested in <b>your</b> impression. Note that some images might have individual buildings or faces blurred for privacy. Please ignore these when making your judgments.
            </p>
        </div>
        <br>
    ","0","","","","","","","","","","","","","","","","","","","","","","","","","","","","",""
"instructions","html-button-response","6","8483","0.0-2.0-4.0","613a12013df4824a86f7e852","625e209c10a247530e1c6964","06asx4l9e7z","5","898","
        <div class=""text-container text-left"">
            <p>Please make sure you are doing this study in an area where you can focus and complete the survey in one sitting.</p>

            <p>Don’t spend too much time on any one picture, and, again go with your gut impression!</p>
            
            <p>The study should take about 30 minutes. We’ll let you know when you’re halfway through.</p>
        </div>
            
        <h3>Ready? Click next to get started!</h3>
        <br>
    ","0","","","","","","","","","","","","","","","","","","","","","","","","","","","","",""
"trial","survey","7","10490","0.0-2.0-5.0","613a12013df4824a86f7e852","625e209c10a247530e1c6964","06asx4l9e7z","5","1949","","{""P0_Q0"":null,""ambiguous"":null,""objects"":null,""invisible"":null,""chaos"":null}","","","","","","","","","","","","","","","","","[]","Nearby location of Toshima Minami-Nagasaki Post Office (jp_tok-c_pos_a_4)","ChIJW9I5jqnyGGAR4LJcH4_S0to","35.725497","139.6854672","JP","TOK","CTR","POS","4-chōme-29-3 Minaminagasaki, Toshima City, Tokyo 171-0052, Japan","jp_tok-c_pos_b_4","90","jp_tok-c_pos_b_4_90"
"trial","survey","8","13419","0.0-2.0-6.0","613a12013df4824a86f7e852","625e209c10a247530e1c6964","06asx4l9e7z","5","2917","","{""P0_Q0"":null,""ambiguous"":null,""objects"":null,""invisible"":null,""chaos"":null}","","","","","","","","","","","","","","","","","[]","Hotel Villa Fontaine Nihombashi-Hakozaki","HSTYOASY","35.68042","139.78604","JP","TOK","CTR","HTL","20-10, NIHOMBASHI-HAKOZAKI-CHO, TOKYO 103-0015","jp_tok-c_htl_a_low1","90","jp_tok-c_htl_a_low1_90"
"trial","survey","9","14794","0.0-2.0-7.0","613a12013df4824a86f7e852","625e209c10a247530e1c6964","06asx4l9e7z","5","1366","","{""P0_Q0"":null,""ambiguous"":null,""objects"":null,""invisible"":null,""chaos"":null}","","","","","","","","","","","","","","","","","[]","Kasai Station Post Office","ChIJY2FCCu2HGGARFTMPVij0n94","35.6656728","139.8727342","JP","HIK","HIK","POS","3-chōme-29-19 Nakakasai, Edogawa City, Tokyo 134-0083, Japan","jp_hik_pos_a_1","90","jp_hik_pos_a_1_90"
"trial","survey","10","15830","0.0-2.0-8.0","613a12013df4824a86f7e852","625e209c10a247530e1c6964","06asx4l9e7z","5","1028","","{""P0_Q0"":null,""ambiguous"":null,""objects"":null,""invisible"":null,""chaos"":null}","","","","","","","","","","","","","","","","","[]","Nearby location of United States Postal Service (us_nyc-p_pos_a_6)","ChIJ3R3ukfxEwokRG8NgRpaxZSY","40.6042186","-73.9781935","US","NYC","PER","POS","1776 W 5th St, Brooklyn, NY 11223, USA","us_nyc-p_pos_b_6","90","us_nyc-p_pos_b_6_90"
"trial","survey","11","17530","0.0-2.0-9.0","613a12013df4824a86f7e852","625e209c10a247530e1c6964","06asx4l9e7z","5","1691","","{""P0_Q0"":null,""ambiguous"":null,""objects"":null,""invisible"":null,""chaos"":null}","","","","","","","","","","","","","","","","","[]","Daiwa Roynet Hotel Tokyo-Osaki","HSTYOAIZ","35.61815","139.72674","JP","TOK","PER","HTL","2-1-3, OSAKI, TOKYO 141-0032","jp_tok-p_htl_a_low2","270","jp_tok-p_htl_a_low2_270"
"trial","survey","12","18663","0.0-2.0-10.0","613a12013df4824a86f7e852","625e209c10a247530e1c6964","06asx4l9e7z","5","1124","","{""P0_Q0"":null,""ambiguous"":null,""objects"":null,""invisible"":null,""chaos"":null}","","","","","","","","","","","","","","","","","[]","Sasazuka Elementary School","ChIJ93VkemvzGGARQtwBVOaMyuk","35.6759768","139.6693391","JP","TOK","CTR","SCH","2-chōme-8-1 Sasazuka, Shibuya City, Tokyo 151-0073, Japan","jp_tok-c_sch_a_6","90","jp_tok-c_sch_a_6_90"
"trial","survey","13","22128","0.0-2.0-11.0","613a12013df4824a86f7e852","625e209c10a247530e1c6964","06asx4l9e7z","5","3456","","{""P0_Q0"":null,""ambiguous"":3,""objects"":3,""invisible"":3,""chaos"":5}","","","","","","","","","","","","","","","","","[]","South Meadows Elementary School","ChIJQaIiMqnOPIgRKzWLjS6IoXg","42.3121005","-84.0238583","US","CHL","CHL","SCH","335 Pierce St, Chelsea, MI 48118, USA","us_chl_sch_a_1","270","us_chl_sch_a_1_270"
"trial","survey","14","23230","0.0-2.0-12.0","613a12013df4824a86f7e852","625e209c10a247530e1c6964","06asx4l9e7z","5","1089","","{""P0_Q0"":null,""ambiguous"":null,""objects"":null,""invisible"":null,""chaos"":null}","","","","","","","","","","","","","","","","","[]","Shinshuku Elementary School","ChIJM1VHO19gGGARYHbYkz0tS8E","35.5572368","139.7158925","JP","TOK","PER","SCH","1-chōme-5-1 Kamatahonchō, Ota City, Tokyo 144-0053, Japan","jp_tok-p_sch_a_2","0","jp_tok-p_sch_a_2_0"
"trial","survey","15","24281","0.0-2.0-13.0","613a12013df4824a86f7e852","625e209c10a247530e1c6964","06asx4l9e7z","5","1042","","{""P0_Q0"":null,""ambiguous"":null,""objects"":null,""invisible"":null,""chaos"":null}","","","","","","","","","","","","","","","","","[]","Nearby location of Nakano Sun Cuore Post Office (jp_tok-p_pos_a_2)","ChIJ_6f_XpryGGARylU0pXEPcbM","35.7102066","139.6632353","JP","TOK","PER","POS","2-chōme-30-7 Arai, Nakano City, Tokyo 165-0026, Japan","jp_tok-p_pos_b_2","270","jp_tok-p_pos_b_2_270"
"trial","survey","16","25278","0.0-2.0-14.0","613a12013df4824a86f7e852","625e209c10a247530e1c6964","06asx4l9e7z","5","987","","{""P0_Q0"":null,""ambiguous"":null,""objects"":null,""invisible"":null,""chaos"":null}","","","","","","","","","","","","","","","","","[]","Nearby location of The Hoxton Williamsburg (us_nyc-p_htl_a_high2)","ChIJyY4VgmdZwokRJvRjPQxu5_w","40.7197786","-73.9599015","US","NYC","PER","HTL","131 Wythe Ave, Brooklyn, NY 11249, USA","us_nyc-p_htl_b_high2","0","us_nyc-p_htl_b_high2_0"
"trial","survey","17","26245","0.0-2.0-15.0","613a12013df4824a86f7e852","625e209c10a247530e1c6964","06asx4l9e7z","5","959","","{""P0_Q0"":null,""ambiguous"":null,""objects"":null,""invisible"":null,""chaos"":null}","","","","","","","","","","","","","","","","","[]","Hotel JAL City Tokyo Toyosu","NKTYOHJC","35.68408","139.80885","JP","TOK","PER","HTL","6 4 20 TOYOSU KOTO KU, TOKYO 1350061","jp_tok-p_htl_a_mid1","270","jp_tok-p_htl_a_mid1_270"
"trial","survey","18","27196","0.0-2.0-16.0","613a12013df4824a86f7e852","625e209c10a247530e1c6964","06asx4l9e7z","5","942","","{""P0_Q0"":null,""ambiguous"":null,""objects"":null,""invisible"":null,""chaos"":null}","","","","","","","","","","","","","","","","","[]","Nearby location of P.S. 153 Adam Clayton Powell (us_nyc-c_sch_a_3)","ChIJ37jL5mL2wokRoeoE0seWQ44","40.8276038","-73.9486798","US","NYC","CTR","SCH","547 W 147th St, New York, NY 10031, USA","us_nyc-c_sch_b_3","90","us_nyc-c_sch_b_3_90"
"trial","survey","19","29463","0.0-2.0-17.0","613a12013df4824a86f7e852","625e209c10a247530e1c6964","06asx4l9e7z","5","2257","","{""P0_Q0"":null,""ambiguous"":null,""objects"":null,""invisible"":null,""chaos"":null}","","","","","","","","","","","","","","","","","[]","Jingūmae 6 Post Office","ChIJO43ODKSMGGAR5KiNqtge1mc","35.6666411","139.7050847","JP","TOK","CTR","POS","6-chōme-12-28 Jingūmae, Shibuya City, Tokyo 150-0001, Japan","jp_tok-c_pos_a_2","270","jp_tok-c_pos_a_2_270"
"trial","survey","20","31297","0.0-2.0-18.0","613a12013df4824a86f7e852","625e209c10a247530e1c6964","06asx4l9e7z","5","1826","","{""P0_Q0"":null,""ambiguous"":null,""objects"":null,""invisible"":null,""chaos"":null}","","","","","","","","","","","","","","","","","[]","Nearby location of The Williamsburg Hotel (us_nyc-p_htl_a_high1)","ChIJH00_Y11ZwokR19006V8VF7Q","40.7203468","-73.9589785","US","NYC","PER","HTL","84 N 9th St, Brooklyn, NY 11249, USA","us_nyc-p_htl_b_high1","270","us_nyc-p_htl_b_high1_270"
"trial","survey","21","32449","0.0-2.0-19.0","613a12013df4824a86f7e852","625e209c10a247530e1c6964","06asx4l9e7z","5","1143","","{""P0_Q0"":null,""ambiguous"":null,""objects"":null,""invisible"":null,""chaos"":null}","","","","","","","","","","","","","","","","","[]","TownePlace Suites by Marriott Ann Arbor","TOARBTPT","42.23796","-83.74932","US","ARB","ARB","HTL","1301 BRIARWOOD CIRCLE DR, ANN ARBOR, MI 48108","us_arb_htl_a_mid1","270","us_arb_htl_a_mid1_270"
"trial","survey","22","33544","0.0-2.0-20.0","613a12013df4824a86f7e852","625e209c10a247530e1c6964","06asx4l9e7z","5","1087","","{""P0_Q0"":null,""ambiguous"":null,""objects"":null,""invisible"":null,""chaos"":null}","","","","","","","","","","","","","","","","","[]","Nearby location of Minami-Ikebukuro Post Office (jp_tok-c_pos_a_6)","ChIJYSTPzWmNGGARuevXlN7s3ko","35.7261522","139.7122633","JP","TOK","CTR","POS","3-chōme-13-20 Minamiikebukuro, Toshima City, Tokyo 171-0022, Japan","jp_tok-c_pos_b_6","90","jp_tok-c_pos_b_6_90"
"trial","survey","23","34796","0.0-2.0-21.0","613a12013df4824a86f7e852","625e209c10a247530e1c6964","06asx4l9e7z","5","1243","","{""P0_Q0"":null,""ambiguous"":null,""objects"":null,""invisible"":null,""chaos"":null}","","","","","","","","","","","","","","","","","[]","Nearby location of Baymont by Wyndham Chelsea (us_chl_htl_a_mid1)","ChIJPR5PbrjOPIgRniUqQCWoPWs","42.298341","-84.0291029","US","CHL","CHL","HTL","1620 Commerce Park Dr suite 100, Chelsea, MI 48118, USA","us_chl_htl_b_mid1","270","us_chl_htl_b_mid1_270"
"trial","survey","24","36013","0.0-2.0-22.0","613a12013df4824a86f7e852","625e209c10a247530e1c6964","06asx4l9e7z","5","1209","","{""P0_Q0"":null,""ambiguous"":null,""objects"":null,""invisible"":null,""chaos"":null}","","","","","","","","","","","","","","","","","[]","United States Postal Service","ChIJj65Q2Jz2wokR_LoJ8_MV6lI","40.8386238","-73.9389823","US","NYC","CTR","POS","511 W 165th St, New York, NY 10032, USA","us_nyc-c_pos_a_4","0","us_nyc-c_pos_a_4_0"
"trial","survey","25","37327","0.0-2.0-23.0","613a12013df4824a86f7e852","625e209c10a247530e1c6964","06asx4l9e7z","5","1305","","{""P0_Q0"":null,""ambiguous"":null,""objects"":null,""invisible"":null,""chaos"":null}","","","","","","","","","","","","","","","","","[]","Nearby location of Hilton Garden Inn New York/Manhattan-Midtown East (us_nyc-c_htl_a_low2)","ChIJp7rOeORYwokR0fuDKJJiHkw","40.7579935","-73.9679168","US","NYC","CTR","HTL","223 E 54th St, New York, NY 10022, USA","us_nyc-c_htl_b_low2","90","us_nyc-c_htl_b_low2_90"
"trial","survey","26","38878","0.0-2.0-24.0","613a12013df4824a86f7e852","625e209c10a247530e1c6964","06asx4l9e7z","5","1543","","{""P0_Q0"":null,""ambiguous"":null,""objects"":null,""invisible"":null,""chaos"":null}","","","","","","","","","","","","","","","","","[]","Nearby location of Aijitsu Elementary School (jp_tok-c_sch_a_5)","ChIJn0gJcliMGGARx62E3ARcjRI","35.6987116","139.7326211","JP","TOK","CTR","SCH","2-8 Saikumachi, Shinjuku City, Tokyo 162-0838, Japan","jp_tok-c_sch_b_5","270","jp_tok-c_sch_b_5_270"
"trial","survey","27","40029","0.0-2.0-25.0","613a12013df4824a86f7e852","625e209c10a247530e1c6964","06asx4l9e7z","5","1143","","{""P0_Q0"":null,""ambiguous"":null,""objects"":null,""invisible"":null,""chaos"":null}","","","","","","","","","","","","","","","","","[]","United States Postal Service","ChIJRxSbQ7LOPIgRxY-tEHFOePE","42.3058978","-84.0197951","US","CHL","CHL","POS","1101 S Main St Ste 100, Chelsea, MI 48118, USA","us_chl_pos_a_1","180","us_chl_pos_a_1_180"
"trial","survey","28","41310","0.0-2.0-26.0","613a12013df4824a86f7e852","625e209c10a247530e1c6964","06asx4l9e7z","5","1274","","{""P0_Q0"":null,""ambiguous"":null,""objects"":null,""invisible"":null,""chaos"":null}","","","","","","","","","","","","","","","","","[]","Nearby location of Comfort Inn JFK Airport (us_nyc-p_htl_a_low2)","ChIJ8dO9l21nwokRghi6bJiuq5c","40.6671742","-73.806723","US","NYC","PER","HTL","133-38 135th Ave, Queens, NY 11420, USA","us_nyc-p_htl_b_low2","0","us_nyc-p_htl_b_low2_0"
"trial","survey","29","42529","0.0-2.0-27.0","613a12013df4824a86f7e852","625e209c10a247530e1c6964","06asx4l9e7z","5","1211","","{""P0_Q0"":null,""ambiguous"":null,""objects"":null,""invisible"":null,""chaos"":null}","","","","","","","","","","","","","","","","","[]","Nearby location of PS 146 Anna M. Short School (us_nyc-c_sch_a_5)","ChIJ2YTRCqpYwokRoILxg84fVx0","40.788425","-73.9404164","US","NYC","CTR","SCH","416 E 105th St, New York, NY 10029, USA","us_nyc-c_sch_b_5","0","us_nyc-c_sch_b_5_0"
"trial","survey","30","44795","0.0-2.0-28.0","613a12013df4824a86f7e852","625e209c10a247530e1c6964","06asx4l9e7z","5","2257","","{""P0_Q0"":null,""ambiguous"":null,""objects"":null,""invisible"":null,""chaos"":null}","","","","","","","","","","","","","","","","","[]","Nearby location of Aman Tokyo (jp_tok-c_htl_a_ultra1)","ChIJ5W6CKziLGGAR73lO8PA1mRk","35.6844083","139.7640849","JP","TOK","CTR","HTL","1-chōme-3-4 Marunouchi, Chiyoda City, Tokyo 100-0005, Japan","jp_tok-c_htl_b_ultra1","180","jp_tok-c_htl_b_ultra1_180"
"trial","survey","31","46841","0.0-2.0-29.0","613a12013df4824a86f7e852","625e209c10a247530e1c6964","06asx4l9e7z","5","2037","","{""P0_Q0"":null,""ambiguous"":null,""objects"":null,""invisible"":null,""chaos"":null}","","","","","","","","","","","","","","","","","[]","Nearby location of Hotel Route-Inn Nagahama Inter (us_chl_htl_a_low1)","ChIJ64OtwtAuAmARNDquDmxOjLw","35.3955527","136.2935564","JP","TOR","TOR","HTL","66 Yamashinachō, Nagahama, Shiga 526-0847, Japan","jp_tor_htl_b_low1","0","jp_tor_htl_b_low1_0"
"trial","survey","32","47955","0.0-2.0-30.0","613a12013df4824a86f7e852","625e209c10a247530e1c6964","06asx4l9e7z","5","1111","","{""P0_Q0"":null,""ambiguous"":null,""objects"":null,""invisible"":null,""chaos"":null}","","","","","","","","","","","","","","","","","[]","Kasai Station Post Office","ChIJY2FCCu2HGGARFTMPVij0n94","35.6656728","139.8727342","JP","HIK","HIK","POS","3-chōme-29-19 Nakakasai, Edogawa City, Tokyo 134-0083, Japan","jp_hik_pos_a_1","180","jp_hik_pos_a_1_180"
"trial","survey","33","49055","0.0-2.0-31.0","613a12013df4824a86f7e852","625e209c10a247530e1c6964","06asx4l9e7z","5","1096","","{""P0_Q0"":null,""ambiguous"":null,""objects"":null,""invisible"":null,""chaos"":null}","","","","","","","","","","","","","","","","","[]","Best Western Plus Arena Hotel","BWJFK142","40.67815","-73.94879","US","NYC","PER","HTL","1324 ATLANTIC AVENUE, BROOKLYN, NY 11216","us_nyc-p_htl_a_low1","180","us_nyc-p_htl_a_low1_180"
"trial","survey","34","50089","0.0-2.0-32.0","613a12013df4824a86f7e852","625e209c10a247530e1c6964","06asx4l9e7z","5","1031","","{""P0_Q0"":null,""ambiguous"":null,""objects"":null,""invisible"":null,""chaos"":null}","","","","","","","","","","","","","","","","","[]","United States Postal Service","ChIJZSVRGDq7PIgRlo_a8I0Tib8","42.1718067","-83.7735227","US","ARB","ARB","POS","108 N Maple Rd, Saline, MI 48176, USA","us_arb_pos_a_1","90","us_arb_pos_a_1_90"
"trial","survey","35","51110","0.0-2.0-33.0","613a12013df4824a86f7e852","625e209c10a247530e1c6964","06asx4l9e7z","5","1017","","{""P0_Q0"":null,""ambiguous"":null,""objects"":null,""invisible"":null,""chaos"":null}","","","","","","","","","","","","","","","","","[]","United States Postal Service","ChIJbQAKGJ_0wokRvPFLNOncKdM","40.8535365","-73.8674033","US","NYC","PER","POS","2100 White Plains Rd FRNT 3, Bronx, NY 10462, USA","us_nyc-p_pos_a_5","90","us_nyc-p_pos_a_5_90"
"trial","survey","36","52163","0.0-2.0-34.0","613a12013df4824a86f7e852","625e209c10a247530e1c6964","06asx4l9e7z","5","1045","","{""P0_Q0"":null,""ambiguous"":null,""objects"":null,""invisible"":null,""chaos"":null}","","","","","","","","","","","","","","","","","[]","Wave Preparatory Elementary School","ChIJRdKuS69owokRVVzQsuzg6go","40.5995661","-73.7582473","US","NYC","PER","SCH","535 Briar Pl, Queens, NY 11691, USA","us_nyc-p_sch_a_4","0","us_nyc-p_sch_a_4_0"
"trial","survey","37","53228","0.0-2.0-35.0","613a12013df4824a86f7e852","625e209c10a247530e1c6964","06asx4l9e7z","5","1057","","{""P0_Q0"":null,""ambiguous"":null,""objects"":null,""invisible"":null,""chaos"":null}","","","","","","","","","","","","","","","","","[]","Nearby location of United States Postal Service (us_arb_pos_a_2)","ChIJlwkqdc6xPIgREfyzp428070","42.2697109","-83.7737698","US","ARB","ARB","POS","2019 W Stadium Blvd, Ann Arbor, MI 48103, USA","us_arb_pos_b_2","90","us_arb_pos_b_2_90"
"trial","survey","38","54394","0.0-2.0-36.0","613a12013df4824a86f7e852","625e209c10a247530e1c6964","06asx4l9e7z","5","1158","","{""P0_Q0"":null,""ambiguous"":null,""objects"":null,""invisible"":null,""chaos"":null}","","","","","","","","","","","","","","","","","[]","Nearby location of Katsushika City Iizuka Elementary School (jp_tok-p_sch_a_3)","ChIJ1_4-r2CFGGARraiLOcCqmco","35.7780152","139.8593261","JP","TOK","PER","SCH","Japan, 〒125-0035 Tokyo, Katsushika City, Minamimizumoto, 2-chōme−28−１６ セブンツークラッシックマンション","jp_tok-p_sch_b_3","180","jp_tok-p_sch_b_3_180"
"trial","survey","39","55410","0.0-2.0-37.0","613a12013df4824a86f7e852","625e209c10a247530e1c6964","06asx4l9e7z","5","1008","","{""P0_Q0"":null,""ambiguous"":null,""objects"":null,""invisible"":null,""chaos"":null}","","","","","","","","","","","","","","","","","[]","The Westin Tokyo","WITYOTOK","35.64174","139.71551","JP","TOK","PER","HTL","1 4 1 MITA MEGURO KU, TOKYO 1538580","jp_tok-p_htl_a_high2","270","jp_tok-p_htl_a_high2_270"
"trial","survey","40","56446","0.0-2.0-38.0","613a12013df4824a86f7e852","625e209c10a247530e1c6964","06asx4l9e7z","5","1028","","{""P0_Q0"":null,""ambiguous"":null,""objects"":null,""invisible"":null,""chaos"":null}","","","","","","","","","","","","","","","","","[]","Nearby location of P.S. 153 Adam Clayton Powell (us_nyc-c_sch_a_3)","ChIJ37jL5mL2wokRoeoE0seWQ44","40.8276038","-73.9486798","US","NYC","CTR","SCH","547 W 147th St, New York, NY 10031, USA","us_nyc-c_sch_b_3","270","us_nyc-c_sch_b_3_270"
"trial","survey","41","57462","0.0-2.0-39.0","613a12013df4824a86f7e852","625e209c10a247530e1c6964","06asx4l9e7z","5","1008","","{""P0_Q0"":null,""ambiguous"":null,""objects"":null,""invisible"":null,""chaos"":null}","","","","","","","","","","","","","","","","","[]","Nearby location of United States Postal Service (us_nyc-c_pos_a_1)","ChIJb5p6MRP2wokR4nQvWgRky_4","40.8100051","-73.9519042","US","NYC","CTR","POS","2311 Frederick Douglass Blvd, New York, NY 10027, USA","us_nyc-c_pos_b_1","270","us_nyc-c_pos_b_1_270"
"attention-check","survey","42","59162","0.0-2.0-40.0","613a12013df4824a86f7e852","625e209c10a247530e1c6964","06asx4l9e7z","5","1693","","{""P0_Q0"":null,""ambiguous"":null,""objects"":null,""invisible"":null,""chaos"":null}","","","","","","","","","","","","","","","","","[]","","","","","","","","","","","",""
"half-way","html-button-response","43","61199","0.0-2.0-41.0","613a12013df4824a86f7e852","625e209c10a247530e1c6964","06asx4l9e7z","5","2035","
            <h3>You are now half way through the study.</h3>
            <p>Please take a quick, 15-second break before you continue.</p>
            <img src='assets/img/countdown-15.gif'>
            <p>The study will automatically advance forward after the countdown is complete. However, you may click ""Next"" to advance forward now if you wish.</p>
        ","0","","","","","","","","","","","","","","","","","","","","","","","","","","","","",""
"trial","survey","44","62844","0.0-2.0-42.0","613a12013df4824a86f7e852","625e209c10a247530e1c6964","06asx4l9e7z","5","1635","","{""P0_Q0"":null,""ambiguous"":null,""objects"":null,""invisible"":null,""chaos"":null}","","","","","","","","","","","","","","","","","[]","The Williamsburg Hotel","WVNYCTWH","40.72173","-73.95801","US","NYC","PER","HTL","96 WYTHE AVENUE, BROOKLYN, NY 11249","us_nyc-p_htl_a_high1","0","us_nyc-p_htl_a_high1_0"
"trial","survey","45","63961","0.0-2.0-43.0","613a12013df4824a86f7e852","625e209c10a247530e1c6964","06asx4l9e7z","5","1109","","{""P0_Q0"":null,""ambiguous"":null,""objects"":null,""invisible"":null,""chaos"":null}","","","","","","","","","","","","","","","","","[]","Nearby location of Adahi Sano Post Office (jp_hik_pos_a_3)","ChIJ687ZfeOPGGARr0sg29_jaNA","35.7854552","139.8422615","JP","HIK","HIK","POS","1-chōme-19-3 Sano, Adachi City, Tokyo 121-0053, Japan","jp_hik_pos_b_3","90","jp_hik_pos_b_3_90"
"trial","survey","46","65012","0.0-2.0-44.0","613a12013df4824a86f7e852","625e209c10a247530e1c6964","06asx4l9e7z","5","1042","","{""P0_Q0"":null,""ambiguous"":null,""objects"":null,""invisible"":null,""chaos"":null}","","","","","","","","","","","","","","","","","[]","Yotsuya Station Post Office","ChIJM8cHVYqMGGARUz2wtp-skCo","35.6875819","139.7296034","JP","TOK","CTR","POS","Japan, 〒160-0004 Tokyo, Shinjuku City, Yotsuya, 1-chōme−６−１","jp_tok-c_pos_a_3","180","jp_tok-c_pos_a_3_180"
"trial","survey","47","66077","0.0-2.0-45.0","613a12013df4824a86f7e852","625e209c10a247530e1c6964","06asx4l9e7z","5","1057","","{""P0_Q0"":null,""ambiguous"":null,""objects"":null,""invisible"":null,""chaos"":null}","","","","","","","","","","","","","","","","","[]","Ōmori Bellport Post Office","ChIJFXY_sTJgGGARZtQCo-Qdz_M","35.5888587","139.7314559","JP","HIK","HIK","POS","6-chōme-26-3 Minamiōi, Shinagawa City, Tokyo 140-0013, Japan","jp_hik_pos_a_2","90","jp_hik_pos_a_2_90"
"trial","survey","48","67110","0.0-2.0-46.0","613a12013df4824a86f7e852","625e209c10a247530e1c6964","06asx4l9e7z","5","1026","","{""P0_Q0"":null,""ambiguous"":null,""objects"":null,""invisible"":null,""chaos"":null}","","","","","","","","","","","","","","","","","[]","Daiwa Roynet Hotel Tokyo-Osaki","HSTYOAIZ","35.61815","139.72674","JP","TOK","PER","HTL","2-1-3, OSAKI, TOKYO 141-0032","jp_tok-p_htl_a_low2","180","jp_tok-p_htl_a_low2_180"
"trial","survey","49","68079","0.0-2.0-47.0","613a12013df4824a86f7e852","625e209c10a247530e1c6964","06asx4l9e7z","5","961","","{""P0_Q0"":null,""ambiguous"":null,""objects"":null,""invisible"":null,""chaos"":null}","","","","","","","","","","","","","","","","","[]","Nearby location of Chelsea House Victorian Inn (us_chl_htl_a_high1)","ChIJrSMrxwHMPIgRw8h_aIwPHas","42.3194142","-84.0203567","US","CHL","CHL","HTL","310 N Main St Suite 202A, Chelsea, MI 48118, USA","us_chl_htl_b_high1","270","us_chl_htl_b_high1_270"
"trial","survey","50","69096","0.0-2.0-48.0","613a12013df4824a86f7e852","625e209c10a247530e1c6964","06asx4l9e7z","5","1009","","{""P0_Q0"":null,""ambiguous"":null,""objects"":null,""invisible"":null,""chaos"":null}","","","","","","","","","","","","","","","","","[]","INTERCONTINENTAL THE STRINGS","ICTYOSTR","35.62791","139.74075","JP","TOK","CTR","HTL","26 32 F SHINAGAWA EAST ONE TWR 2 16 1 KONAN, TOKYO 108 8282","jp_tok-c_htl_a_mid2","180","jp_tok-c_htl_a_mid2_180"
"trial","survey","51","70247","0.0-2.0-49.0","613a12013df4824a86f7e852","625e209c10a247530e1c6964","06asx4l9e7z","5","1143","","{""P0_Q0"":null,""ambiguous"":null,""objects"":null,""invisible"":null,""chaos"":null}","","","","","","","","","","","","","","","","","[]","Nearby location of Léman Manhattan Preparatory School (us_nyc-c_sch_a_8)","ChIJAVYKVhFawokRXaCXY0rBkQY","40.7050863","-74.0127568","US","NYC","CTR","SCH","9 Beaver St, New York, NY 10004, USA","us_nyc-c_sch_b_8","0","us_nyc-c_sch_b_8_0"
"trial","survey","52","71194","0.0-2.0-50.0","613a12013df4824a86f7e852","625e209c10a247530e1c6964","06asx4l9e7z","5","938","","{""P0_Q0"":null,""ambiguous"":null,""objects"":null,""invisible"":null,""chaos"":null}","","","","","","","","","","","","","","","","","[]","Minami-Ikebukuro Post Office","ChIJZ0rDTmiNGGARmRNW8DDznoU","35.7271243","139.7133376","JP","TOK","CTR","POS","2-chōme-24-1 Minamiikebukuro, Toshima City, Tokyo 171-0022, Japan","jp_tok-c_pos_a_6","180","jp_tok-c_pos_a_6_180"
"trial","survey","53","72194","0.0-2.0-51.0","613a12013df4824a86f7e852","625e209c10a247530e1c6964","06asx4l9e7z","5","992","","{""P0_Q0"":null,""ambiguous"":null,""objects"":null,""invisible"":null,""chaos"":null}","","","","","","","","","","","","","","","","","[]","Nearby location of Chelsea House Victorian Inn (us_chl_htl_a_high1)","ChIJrSMrxwHMPIgRw8h_aIwPHas","42.3194142","-84.0203567","US","CHL","CHL","HTL","310 N Main St Suite 202A, Chelsea, MI 48118, USA","us_chl_htl_b_high1","180","us_chl_htl_b_high1_180"
"trial","survey","54","73178","0.0-2.0-52.0","613a12013df4824a86f7e852","625e209c10a247530e1c6964","06asx4l9e7z","5","977","","{""P0_Q0"":null,""ambiguous"":null,""objects"":null,""invisible"":null,""chaos"":null}","","","","","","","","","","","","","","","","","[]","Nearby location of Oizumi Daini Elementary School (jp_tok-p_sch_a_6)","ChIJMaeqHtruGGARm4LZU_WxHzQ","35.7454686","139.5741349","JP","TOK","PER","SCH","4-chōme-32-2 Minamiōizumi, Nerima City, Tokyo 178-0064, Japan","jp_tok-p_sch_b_6","180","jp_tok-p_sch_b_6_180"
"trial","survey","55","74193","0.0-2.0-53.0","613a12013df4824a86f7e852","625e209c10a247530e1c6964","06asx4l9e7z","5","1007","","{""P0_Q0"":null,""ambiguous"":null,""objects"":null,""invisible"":null,""chaos"":null}","","","","","","","","","","","","","","","","","[]","Nearby location of Flexstay Inn Shinagawa (jp_tok-p_htl_a_mid2)","ChIJd27F2VyKGGARc1F75nZNGYI","35.6235067","139.7415021","JP","TOK","PER","HTL","1-chōme-8-19 Kitashinagawa, Shinagawa City, Tokyo 140-0001, Japan","jp_tok-p_htl_b_mid2","90","jp_tok-p_htl_b_mid2_90"
"trial","survey","56","75212","0.0-2.0-54.0","613a12013df4824a86f7e852","625e209c10a247530e1c6964","06asx4l9e7z","5","1011","","{""P0_Q0"":null,""ambiguous"":null,""objects"":null,""invisible"":null,""chaos"":null}","","","","","","","","","","","","","","","","","[]","Nearby location of ORCHARD STREET HOTEL (us_nyc-c_htl_a_low1)","ChIJ8TquxYZZwokRPgCEBRlBnXM","40.7198222","-73.9898421","US","NYC","CTR","HTL","130 Allen St, New York, NY 10002, USA","us_nyc-c_htl_b_low1","0","us_nyc-c_htl_b_low1_0"
"trial","survey","57","76245","0.0-2.0-55.0","613a12013df4824a86f7e852","625e209c10a247530e1c6964","06asx4l9e7z","5","1025","","{""P0_Q0"":null,""ambiguous"":null,""objects"":null,""invisible"":null,""chaos"":null}","","","","","","","","","","","","","","","","","[]","Comfort Inn","ChIJ-4dsD7jOPIgR_03DSz1SKuQ","42.2976226","-84.0277709","US","CHL","CHL","HTL","1645 Commerce Park Dr, Chelsea, MI 48118, USA","us_chl_htl_a_low1","90","us_chl_htl_a_low1_90"
"trial","survey","58","77214","0.0-2.0-56.0","613a12013df4824a86f7e852","625e209c10a247530e1c6964","06asx4l9e7z","5","961","","{""P0_Q0"":null,""ambiguous"":null,""objects"":null,""invisible"":null,""chaos"":null}","","","","","","","","","","","","","","","","","[]","Nearby location of TownePlace Suites by Marriott Ann Arbor (us_arb_htl_a_mid1)","ChIJ71gCcu-vPIgRi_B5Ob5B76o","42.2367203","-83.7509139","US","ARB","ARB","HTL","1126 Lariat Loop, Ann Arbor, MI 48108, USA","us_arb_htl_b_mid1","180","us_arb_htl_b_mid1_180"
"trial","survey","59","78180","0.0-2.0-57.0","613a12013df4824a86f7e852","625e209c10a247530e1c6964","06asx4l9e7z","5","957","","{""P0_Q0"":null,""ambiguous"":null,""objects"":null,""invisible"":null,""chaos"":null}","","","","","","","","","","","","","","","","","[]","Nearby location of Hotel Kaito (jp_hik_htl_a_low2)","ChIJK566KTuSAWARF4Kp9393J_4","35.3976612","136.0302169","JP","HIK","HIK","HTL","Japan, 〒520-1631 Shiga, Takashima, Imazuchō Nakoji, 2-chōme−６−３２","jp_hik_htl_b_low2","180","jp_hik_htl_b_low2_180"
"trial","survey","60","79096","0.0-2.0-58.0","613a12013df4824a86f7e852","625e209c10a247530e1c6964","06asx4l9e7z","5","908","","{""P0_Q0"":null,""ambiguous"":null,""objects"":null,""invisible"":null,""chaos"":null}","","","","","","","","","","","","","","","","","[]","Nearby location of Math, Language and Art Elementary Math Algebra I & II Geometry PreCalculus Calculus College Math Data Analysis (us_nyc-p_sch_a_2)","ChIJrTWRtBpgwokRN4EStLSswiQ","40.7637342","-73.8299598","US","NYC","PER","SCH","137-35 Northern Blvd, Queens, NY 11354, USA","us_nyc-p_sch_b_2","0","us_nyc-p_sch_b_2_0"
"trial","survey","61","80145","0.0-2.0-59.0","613a12013df4824a86f7e852","625e209c10a247530e1c6964","06asx4l9e7z","5","1042","","{""P0_Q0"":null,""ambiguous"":null,""objects"":null,""invisible"":null,""chaos"":null}","","","","","","","","","","","","","","","","","[]","United States Postal Service","ChIJ00vgwVlDwokRCNivb7JW25o","40.6153779","-73.9292541","US","NYC","PER","POS","2222 Flatbush Ave, Brooklyn, NY 11234, USA","us_nyc-p_pos_a_3","0","us_nyc-p_pos_a_3_0"
"trial","survey","62","81112","0.0-2.0-60.0","613a12013df4824a86f7e852","625e209c10a247530e1c6964","06asx4l9e7z","5","958","","{""P0_Q0"":null,""ambiguous"":null,""objects"":null,""invisible"":null,""chaos"":null}","","","","","","","","","","","","","","","","","[]","INTERCONTINENTAL THE STRINGS","ICTYOSTR","35.62791","139.74075","JP","TOK","CTR","HTL","26 32 F SHINAGAWA EAST ONE TWR 2 16 1 KONAN, TOKYO 108 8282","jp_tok-c_htl_a_mid2","0","jp_tok-c_htl_a_mid2_0"
"trial","survey","63","82078","0.0-2.0-61.0","613a12013df4824a86f7e852","625e209c10a247530e1c6964","06asx4l9e7z","5","959","","{""P0_Q0"":null,""ambiguous"":null,""objects"":null,""invisible"":null,""chaos"":null}","","","","","","","","","","","","","","","","","[]","Yonehara Shiritsu Yonehara Elementary School","ChIJaQYSoWQrAmARNFmF-erxUY4","35.31424","136.280753","JP","HIK","HIK","SCH","307 Irie, Maibara, Shiga 521-0003, Japan","jp_hik_sch_a_1","180","jp_hik_sch_a_1_180"
"trial","survey","64","83162","0.0-2.0-62.0","613a12013df4824a86f7e852","625e209c10a247530e1c6964","06asx4l9e7z","5","1076","","{""P0_Q0"":null,""ambiguous"":null,""objects"":null,""invisible"":null,""chaos"":null}","","","","","","","","","","","","","","","","","[]","MyStays Asakusa","HSTYOACG","35.70393","139.79741","JP","TOK","PER","HTL","1-21-11, HONJO, TOKYO 130-0004","jp_tok-p_htl_a_low1","0","jp_tok-p_htl_a_low1_0"
"trial","survey","65","84213","0.0-2.0-63.0","613a12013df4824a86f7e852","625e209c10a247530e1c6964","06asx4l9e7z","5","1043","","{""P0_Q0"":null,""ambiguous"":null,""objects"":null,""invisible"":null,""chaos"":null}","","","","","","","","","","","","","","","","","[]","Nearby location of Courtyard by Marriott New York Manhattan Fifth Avenue (us_nyc-c_htl_a_mid2)","ChIJ5Yg_sQBZwokRHhiGwRT771k","40.750592","-73.982198","US","NYC","CTR","HTL","6 E 38th St, New York, NY 10016, USA","us_nyc-c_htl_b_mid2","0","us_nyc-c_htl_b_mid2_0"
"trial","survey","66","85394","0.0-2.0-64.0","613a12013df4824a86f7e852","625e209c10a247530e1c6964","06asx4l9e7z","5","1174","","{""P0_Q0"":null,""ambiguous"":null,""objects"":null,""invisible"":null,""chaos"":null}","","","","","","","","","","","","","","","","","[]","Kanponoyado Hikone","ChIJlbdbLicrAmARI9pD-bcXKlg","35.2872369","136.2493256","JP","HIK","HIK","HTL","3759 Matsubarachō, Hikone, Shiga 522-0002, Japan","jp_hik_htl_a_mid1","0","jp_hik_htl_a_mid1_0"
"trial","survey","67","86462","0.0-2.0-65.0","613a12013df4824a86f7e852","625e209c10a247530e1c6964","06asx4l9e7z","5","1060","","{""P0_Q0"":null,""ambiguous"":null,""objects"":null,""invisible"":null,""chaos"":null}","","","","","","","","","","","","","","","","","[]","Nearby location of United States Postal Service (us_nyc-c_pos_a_4)","ChIJcyZXC532wokRElZ4iPS6aWo","40.8396207","-73.9374588","US","NYC","CTR","POS","2170 Amsterdam Ave, New York, NY 10032, USA","us_nyc-c_pos_b_4","180","us_nyc-c_pos_b_4_180"
"trial","survey","68","87496","0.0-2.0-66.0","613a12013df4824a86f7e852","625e209c10a247530e1c6964","06asx4l9e7z","5","1026","","{""P0_Q0"":null,""ambiguous"":null,""objects"":null,""invisible"":null,""chaos"":null}","","","","","","","","","","","","","","","","","[]","Nearby location of Bunkyo Otsuka 3 Post Office (jp_tok-c_pos_a_7)","ChIJ8yJGd6-NGGARH10utNOusFo","35.7205268","139.7394333","JP","TOK","CTR","POS","3-chōme-35-1 Ōtsuka, Bunkyo City, Tokyo 112-0012, Japan","jp_tok-c_pos_b_7","0","jp_tok-c_pos_b_7_0"
"trial","survey","69","88479","0.0-2.0-67.0","613a12013df4824a86f7e852","625e209c10a247530e1c6964","06asx4l9e7z","5","975","","{""P0_Q0"":null,""ambiguous"":null,""objects"":null,""invisible"":null,""chaos"":null}","","","","","","","","","","","","","","","","","[]","Waseda Daigaku-mae Post Office","ChIJT2M2MgONGGARQWhBX_HTPFY","35.7080144","139.7220286","JP","HIK","HIK","POS","Japan, 〒162-0041 東京都新宿区早稲田鶴巻町５３３","jp_hik_pos_a_4","90","jp_hik_pos_a_4_90"
"trial","survey","70","89496","0.0-2.0-68.0","613a12013df4824a86f7e852","625e209c10a247530e1c6964","06asx4l9e7z","5","1008","","{""P0_Q0"":null,""ambiguous"":null,""objects"":null,""invisible"":null,""chaos"":null}","","","","","","","","","","","","","","","","","[]","Jittered SV for The Tokyo Station Hotel (jp_tok-c_htl_a_high2)","ChIJC3Cf2PuLGGAROO00ukl8JwA","35.6812362","139.7671248","JP","TOK","CTR","HTL","Tokyo Station, 1-chōme-9 Marunouchi, Chiyoda City, Tokyo 100-0005, Japan","jp_tok-c_htl_a_high2","90","jp_tok-c_htl_a_high2_90"
"trial","survey","71","90479","0.0-2.0-69.0","613a12013df4824a86f7e852","625e209c10a247530e1c6964","06asx4l9e7z","5","975","","{""P0_Q0"":null,""ambiguous"":null,""objects"":null,""invisible"":null,""chaos"":null}","","","","","","","","","","","","","","","","","[]","Nearby location of Nihonbashi Elementary School (jp_tok-c_sch_a_7)","ChIJNS-5qVqJGGARajMXSGlTOSk","35.6833699","139.7826794","JP","TOK","CTR","SCH","1-chōme-15-9 Nihonbashikakigarachō, Chuo City, Tokyo 103-0014, Japan","jp_tok-c_sch_b_7","90","jp_tok-c_sch_b_7_90"
"trial","survey","72","91528","0.0-2.0-70.0","613a12013df4824a86f7e852","625e209c10a247530e1c6964","06asx4l9e7z","5","1042","","{""P0_Q0"":null,""ambiguous"":null,""objects"":null,""invisible"":null,""chaos"":null}","","","","","","","","","","","","","","","","","[]","Courtyard by Marriott New York Manhattan Fifth Avenue","CYNYCESC","40.75211","-73.98141","US","NYC","CTR","HTL","3 EAST 40TH ST, NEW YORK, NY 10016","us_nyc-c_htl_a_mid2","90","us_nyc-c_htl_a_mid2_90"
"trial","survey","73","92512","0.0-2.0-71.0","613a12013df4824a86f7e852","625e209c10a247530e1c6964","06asx4l9e7z","5","976","","{""P0_Q0"":null,""ambiguous"":null,""objects"":null,""invisible"":null,""chaos"":null}","","","","","","","","","","","","","","","","","[]","Nearby location of びわ湖畔リゾート 白浜荘 (jp_hik_htl_a_mid2)","ChIJR-fdOL6aAWARRx-bTY1d8b8","35.3062783","136.038326","JP","HIK","HIK","HTL","2315-3 Adogawachō Shimoogawa, Takashima, Shiga 520-1223, Japan","jp_hik_htl_b_mid2","180","jp_hik_htl_b_mid2_180"
"trial","survey","74","93514","0.0-2.0-72.0","613a12013df4824a86f7e852","625e209c10a247530e1c6964","06asx4l9e7z","5","995","","{""P0_Q0"":null,""ambiguous"":null,""objects"":null,""invisible"":null,""chaos"":null}","","","","","","","","","","","","","","","","","[]","ORCHARD STREET HOTEL","PWNYC109","40.72117","-73.98894","US","NYC","CTR","HTL","163 ORCHARD STREET, NEW YORK, NY 10002","us_nyc-c_htl_a_low1","270","us_nyc-c_htl_a_low1_270"
"trial","survey","75","94429","0.0-2.0-73.0","613a12013df4824a86f7e852","625e209c10a247530e1c6964","06asx4l9e7z","5","907","","{""P0_Q0"":null,""ambiguous"":null,""objects"":null,""invisible"":null,""chaos"":null}","","","","","","","","","","","","","","","","","[]","Guidepost Montessori at Museum Mile","ChIJM_EqNF5ZwokRqGSOTYl-ARs","40.7764017","-73.9629479","US","NYC","CTR","SCH","12 E 79th St, New York, NY 10075, USA","us_nyc-c_sch_a_7","180","us_nyc-c_sch_a_7_180"
"trial","survey","76","95412","0.0-2.0-74.0","613a12013df4824a86f7e852","625e209c10a247530e1c6964","06asx4l9e7z","5","976","","{""P0_Q0"":null,""ambiguous"":null,""objects"":null,""invisible"":null,""chaos"":null}","","","","","","","","","","","","","","","","","[]","THOMPSON CENTRAL PARK - NEW YORK","HYNYCPAH","40.76418","-73.97855","US","NYC","CTR","HTL","119 WEST 56 STREET, NEW YORK, NY 10019","us_nyc-c_htl_a_high2","90","us_nyc-c_htl_a_high2_90"
"trial","survey","77","96379","0.0-2.0-75.0","613a12013df4824a86f7e852","625e209c10a247530e1c6964","06asx4l9e7z","5","960","","{""P0_Q0"":null,""ambiguous"":null,""objects"":null,""invisible"":null,""chaos"":null}","","","","","","","","","","","","","","","","","[]","Nearby location of Kakezuka Elementary School (jp_tok-c_sch_a_4)","ChIJZ3Y9uRWLGGAR3VkcUPtDdr0","35.6430912","139.71302","JP","TOK","CTR","SCH","4 Chome-20 Ebisu, Shibuya City, Tokyo 150-0013, Japan","jp_tok-c_sch_b_4","270","jp_tok-c_sch_b_4_270"
"trial","survey","78","97279","0.0-2.0-76.0","613a12013df4824a86f7e852","625e209c10a247530e1c6964","06asx4l9e7z","5","892","","{""P0_Q0"":null,""ambiguous"":null,""objects"":null,""invisible"":null,""chaos"":null}","","","","","","","","","","","","","","","","","[]","Courtyard by Marriott New York Manhattan Fifth Avenue","CYNYCESC","40.75211","-73.98141","US","NYC","CTR","HTL","3 EAST 40TH ST, NEW YORK, NY 10016","us_nyc-c_htl_a_mid2","0","us_nyc-c_htl_a_mid2_0"
"demographics","survey-html-form","79","104133","0.0-2.0-77.0","613a12013df4824a86f7e852","625e209c10a247530e1c6964","06asx4l9e7z","5","6852","","{""age"":""23"",""gender"":""male"",""gender-self-describe"":"""",""zipcode"":""48104""}","","","","","","","","","","","","","","","","","","","","","","","","","","","","",""
"demographics","survey","80","108151","0.0-2.0-78.0","613a12013df4824a86f7e852","625e209c10a247530e1c6964","06asx4l9e7z","5","3997","","{""P0_Q0"":null,""outsideUS"":""Yes"",""outsideUS_years"":""14""}","","","","","","","","","","","","","","","","","[]","","","","","","","","","","","",""
"end-survey","survey-text","81","111565","0.0-2.0-79.0","613a12013df4824a86f7e852","625e209c10a247530e1c6964","06asx4l9e7z","5","3405","","{""Q0"":""test yuyang""}","","","","","","","","","","","","","","","","","","","","","","","","","","","","",""
