"task","trial_type","trial_index","time_elapsed","internal_node_id","subject_id","study_id","width","height","webaudio","browser","browser_version","mobile","os","fullscreen","vsync_rate","webcam","microphone","rt","stimulus","response","success","timeout","failed_images","failed_audio","failed_video","family","country","cluster","stimulus_path","accuracy"
"pavlovia-init","pavlovia","0","1281","0.0-0.0","90130","","","","","","","","","","","","","","","","","","","","","","","","",""
"browser-check","browser-check","1","2274","0.0-1.0","90130","","1450","899","true","chrome","134.0.0","false","Mac OS","true","60.77","true","true","","","","","","","","","","","","",""
"consent","html-button-response","2","12088","0.0-2.0","90130","","","","","","","","","","","","","9811","
    <div style=""font-size: 80%; max-width:700px"">
        <h2>Informed Consent</h2><br>
    
        <div style=""text-align: left"">
        <h3>Streetscape Perceptions</h3>
        <b>HUM00189138</b>
        <br><hr>
    
        <h4>DESCRIPTION</h4>
        <p>
        In this study, you will view Google Street View images. You will then answer questions about your impressions of the streetscapes presented in those images.

        </p><br>
    
        <h4>TIME INVOLVEMENT</h4>
        <p>Your participation will take approximately 30 minutes.</p><br>
    
        <h4>RISKS AND BENEFITS</h4>
        <p>
        The risks associated with this study are minimal. The benefits which may reasonably be expected to result from this study are none.  We cannot and do not guarantee or promise that you will receive any benefits from this study.  
        </p><br>

        <h4>PAYMENTS</h4>
        <p>You will receive .5 credit  for your participation.</p><br>

        <h4>SUBJECT'S RIGHTS</h4>
        <p>
        If you have read this form and have decided to participate in this project, please understand your participation is voluntary and you have the right to withdraw your consent or discontinue participation at any time without penalty or loss of benefits to which you are otherwise entitled.  The alternative is not to participate.  You have the right to refuse to answer particular questions.  
        </p>
    
        <p>
        Your individual privacy will be maintained in all published and written data resulting from the study. Your responses will be kept confidential: you are given a participant code, and no one, not even the research team, can match that code with your identity. Your collected information may also be shared with other researchers as part of our dataset.
        </p><br>
    
        <h4>CONTACT INFORMATION</h4>
        <p>
        Questions:  If you have any questions, concerns or complaints about this research, its procedures, risks and benefits, contact the Protocol Director, Nicholas Camp, npcamp@umich.edu, (443) 851-6783.
        </p>
    
        <p>
        If you have questions about your rights as a research participant, or wish to obtain information, ask questions or discuss any concerns about this study with someone other than the researcher(s), please contact the following:
        <br><br>
    
        University of Michigan<br>
        Health Sciences and Behavioral Sciences Institutional Review Board
        (IRB-HSBS)<br>
        2800 Plymouth Road <br>
        Building 520, Room 1169 <br>
        Ann Arbor, MI 48109-2800 <br>
        Telephone: 734-936-0933 or toll free (866) 936-0933 <br>
        Fax: 734-936-1852 <br />
        E-mail: irbhsbs@umich.edu <br>
        </p>
    
        <p>
        You can also contact the University of Michigan Compliance Hotline at 1-866-990-0111. You may also print this consent form to keep.
        </p>
        <br>
    
        <div class=""alert alert-warning""><b>
        Do you consent to participate in this study? If you consent to participate in this study, please click “yes”. If you select ""no"", you will be directed out of the survey.

        </b></div>
        </div>
    </div>
","1","","","","","","","","","",""
"","preload","3","14707","0.0-3.0","90130","","","","","","","","","","","","","","","","true","false","[]","[]","[]","","","","",""
"","preload","4","20004","0.0-4.0","90130","","","","","","","","","","","","","","","","true","false","[]","[]","[]","","","","",""
"instructions","html-button-response","5","25892","0.0-5.0","90130","","","","","","","","","","","","","5886","
<div class=""text-container"">
    <h1>Welcome to the study!</h1>
    <div class=""text-left"">
        <p>
            In this study, we are interested in how people think about different Google Street View images. Google Street View takes pictures of streets used for Google Earth and Google Maps. You’ll see Google Street View images of different places and answer some questions about each one.
        </p>
    </div>
    <img src = ""assets/img/example.png"" width = 500px, height = auto>
    <br>
<br>
","0","","","","","","","","","",""
"instructions","html-button-response","6","32311","0.0-6.0","90130","","","","","","","","","","","","","6418","
        <style>
            img.small {
            max-width: 100px;
            }
            li {
            text-indent: 40px;
            }
        </style>

        <div class=""text-container text-left"">
            <p>For each picture, we’d like your impressions of the scene:</p>
            <hr>
            Are there <b>clear, distinct boundaries</b> between objects in the scene, or are the <b>boundaries ambiguous or unclear</b>?
            <li>clear, distinct boundaries: <img class=""small"" src=""assets/img/ambiguous-low.png""></li>
            <li>ambiguous or unclear boundaries: <img class=""small"" src=""assets/img/ambiguous-high.png""></li>
            <hr>
            <br>
            Are there <b>only a few different objects</b> in the scene, or is there <b>a large number</b>?
            <br><br>
            <hr>
            Are only <b>a few parts</b> of the scene <b>invisible or obscured</b>, or are <b>many parts invisible or obscured</b>?    
            <li>a few parts invisible or obscured: <img class=""small"" src=""assets/img/invisible-low.png""></li>
            <li>many parts invisible or obscured: <img class=""small"" src=""assets/img/invisible-high.png""></li>
            <hr>
            <br>
            Does the scene look <b>organized</b> or <b>chaotic</b> to you?
            <br><br>
            <hr>
            <p>
            There are no right or wrong answers: we are interested in <b>your</b> impression. Note that some images might have individual buildings or faces blurred for privacy. Please ignore these when making your judgments.
            </p>
        </div>
        <br>
","0","","","","","","","","","",""
"","html-button-response","7","33466","0.0-7.0","90130","","","","","","","","","","","","","1153","<div class=""text-container""><h3>On the next page, you will view a few Google Streetview images taken at random from a single neighborhood.</h3><br></div>","0","","","","","","","","","",""
"","html-button-response","8","34337","0.0-8.0","90130","","","","","","","","","","","","","870","<div class=""text-container""><h3>Click next to see the next neighborhood.</h3></div><br>","0","","","","","","","","","",""
"street view slide show","image-button-response","9","35345","0.0-9.0","90130","","","","","","","","","","","","","null","./stim/Pau_France_8_1_8/Pau___France_2_2.jpg","null","","","","","","8","","2","./stim/Pau_France_8_1_8/Pau___France_2_2.jpg",""
"street view slide show","image-button-response","10","36349","0.0-10.0","90130","","","","","","","","","","","","","null","./stim/Pau_France_8_1_8/Pau___France_2_5.jpg","null","","","","","","8","","2","./stim/Pau_France_8_1_8/Pau___France_2_5.jpg",""
"street view slide show","image-button-response","11","37352","0.0-11.0","90130","","","","","","","","","","","","","null","./stim/Pau_France_8_1_8/Pau___France_2_4.jpg","null","","","","","","8","","2","./stim/Pau_France_8_1_8/Pau___France_2_4.jpg",""
"street view slide show","image-button-response","12","38356","0.0-12.0","90130","","","","","","","","","","","","","null","./stim/Pau_France_8_1_8/Pau___France_2_3.jpg","null","","","","","","8","","2","./stim/Pau_France_8_1_8/Pau___France_2_3.jpg",""
"street view slide show","image-button-response","13","39360","0.0-13.0","90130","","","","","","","","","","","","","null","./stim/Pau_France_8_1_8/Pau___France_2_7.jpg","null","","","","","","8","","2","./stim/Pau_France_8_1_8/Pau___France_2_7.jpg",""
"sv response","survey","14","61979","0.0-14.0","90130","","","","","","","","","","","","","22581","","{""prompt"":null,""ambiguous"":1,""objects"":1,""invisible"":1,""chaos"":1,""complex"":1}","","","","","","","","","","[]"
"","html-button-response","15","62898","0.0-15.0","90130","","","","","","","","","","","","","918","<div class=""text-container""><h3>Click next to see the next neighborhood.</h3></div><br>","0","","","","","","","","","",""
"street view slide show","image-button-response","16","63902","0.0-16.0","90130","","","","","","","","","","","","","null","./stim/Honolulu_Hawaii_8_1_8/Honolulu___Hawaii_2_3.jpg","null","","","","","","7","","2","./stim/Honolulu_Hawaii_8_1_8/Honolulu___Hawaii_2_3.jpg",""
"street view slide show","image-button-response","17","64905","0.0-17.0","90130","","","","","","","","","","","","","null","./stim/Honolulu_Hawaii_8_1_8/Honolulu___Hawaii_2_4.jpg","null","","","","","","7","","2","./stim/Honolulu_Hawaii_8_1_8/Honolulu___Hawaii_2_4.jpg",""
"street view slide show","image-button-response","18","65908","0.0-18.0","90130","","","","","","","","","","","","","null","./stim/Honolulu_Hawaii_8_1_8/Honolulu___Hawaii_2_2.jpg","null","","","","","","7","","2","./stim/Honolulu_Hawaii_8_1_8/Honolulu___Hawaii_2_2.jpg",""
"street view slide show","image-button-response","19","66911","0.0-19.0","90130","","","","","","","","","","","","","null","./stim/Honolulu_Hawaii_8_1_8/Honolulu___Hawaii_2_1.jpg","null","","","","","","7","","2","./stim/Honolulu_Hawaii_8_1_8/Honolulu___Hawaii_2_1.jpg",""
"street view slide show","image-button-response","20","67913","0.0-20.0","90130","","","","","","","","","","","","","null","./stim/Honolulu_Hawaii_8_1_8/Honolulu___Hawaii_2_5.jpg","null","","","","","","7","","2","./stim/Honolulu_Hawaii_8_1_8/Honolulu___Hawaii_2_5.jpg",""
"sv response","survey","21","113252","0.0-21.0","90130","","","","","","","","","","","","","45324","","{""prompt"":null,""ambiguous"":1,""objects"":1,""invisible"":1,""chaos"":1,""complex"":1}","","","","","","","","","","[]"
"","html-button-response","22","114291","0.0-22.0","90130","","","","","","","","","","","","","1038","<div class=""text-container""><h3>Click next to see the next neighborhood.</h3></div><br>","0","","","","","","","","","",""
"street view slide show","image-button-response","23","115294","0.0-23.0","90130","","","","","","","","","","","","","null","./stim/DesMoines_Iowa_8_1_8/Des_Moines___Iowa_1_1.jpg","null","","","","","","8","","1","./stim/DesMoines_Iowa_8_1_8/Des_Moines___Iowa_1_1.jpg",""
"street view slide show","image-button-response","24","116297","0.0-24.0","90130","","","","","","","","","","","","","null","./stim/DesMoines_Iowa_8_1_8/Des_Moines___Iowa_1_3.jpg","null","","","","","","8","","1","./stim/DesMoines_Iowa_8_1_8/Des_Moines___Iowa_1_3.jpg",""
"street view slide show","image-button-response","25","117300","0.0-25.0","90130","","","","","","","","","","","","","null","./stim/DesMoines_Iowa_8_1_8/Des_Moines___Iowa_1_2.jpg","null","","","","","","8","","1","./stim/DesMoines_Iowa_8_1_8/Des_Moines___Iowa_1_2.jpg",""
"street view slide show","image-button-response","26","118303","0.0-26.0","90130","","","","","","","","","","","","","null","./stim/DesMoines_Iowa_8_1_8/Des_Moines___Iowa_1_4.jpg","null","","","","","","8","","1","./stim/DesMoines_Iowa_8_1_8/Des_Moines___Iowa_1_4.jpg",""
"street view slide show","image-button-response","27","119307","0.0-27.0","90130","","","","","","","","","","","","","null","./stim/DesMoines_Iowa_8_1_8/Des_Moines___Iowa_1_5.jpg","null","","","","","","8","","1","./stim/DesMoines_Iowa_8_1_8/Des_Moines___Iowa_1_5.jpg",""
"sv response","survey","28","124541","0.0-28.0","90130","","","","","","","","","","","","","5221","","{""prompt"":null,""ambiguous"":1,""objects"":1,""invisible"":1,""chaos"":1,""complex"":1}","","","","","","","","","","[]"
"","html-button-response","29","125619","0.0-29.0","90130","","","","","","","","","","","","","1077","<div class=""text-container""><h3>Click next to see the next neighborhood.</h3></div><br>","0","","","","","","","","","",""
"street view slide show","image-button-response","30","126622","0.0-30.0","90130","","","","","","","","","","","","","null","./stim/Honolulu_Hawaii_8_1_8/Honolulu___Hawaii_6_6.jpg","null","","","","","","7","","6","./stim/Honolulu_Hawaii_8_1_8/Honolulu___Hawaii_6_6.jpg",""
"street view slide show","image-button-response","31","127624","0.0-31.0","90130","","","","","","","","","","","","","null","./stim/Honolulu_Hawaii_8_1_8/Honolulu___Hawaii_6_4.jpg","null","","","","","","7","","6","./stim/Honolulu_Hawaii_8_1_8/Honolulu___Hawaii_6_4.jpg",""
"street view slide show","image-button-response","32","128627","0.0-32.0","90130","","","","","","","","","","","","","null","./stim/Honolulu_Hawaii_8_1_8/Honolulu___Hawaii_6_5.jpg","null","","","","","","7","","6","./stim/Honolulu_Hawaii_8_1_8/Honolulu___Hawaii_6_5.jpg",""
"street view slide show","image-button-response","33","129631","0.0-33.0","90130","","","","","","","","","","","","","null","./stim/Honolulu_Hawaii_8_1_8/Honolulu___Hawaii_6_3.jpg","null","","","","","","7","","6","./stim/Honolulu_Hawaii_8_1_8/Honolulu___Hawaii_6_3.jpg",""
"street view slide show","image-button-response","34","130634","0.0-34.0","90130","","","","","","","","","","","","","null","./stim/Honolulu_Hawaii_8_1_8/Honolulu___Hawaii_6_2.jpg","null","","","","","","7","","6","./stim/Honolulu_Hawaii_8_1_8/Honolulu___Hawaii_6_2.jpg",""
"sv response","survey","35","135935","0.0-35.0","90130","","","","","","","","","","","","","5293","","{""prompt"":null,""ambiguous"":1,""objects"":1,""invisible"":1,""chaos"":1,""complex"":1}","","","","","","","","","","[]"
"","html-button-response","36","136976","0.0-36.0","90130","","","","","","","","","","","","","1040","<div class=""text-container""><h3>Click next to see the next neighborhood.</h3></div><br>","0","","","","","","","","","",""
"street view slide show","image-button-response","37","137979","0.0-37.0","90130","","","","","","","","","","","","","null","./stim/DesMoines_Iowa_8_1_8/Des_Moines___Iowa_3_5.jpg","null","","","","","","8","","3","./stim/DesMoines_Iowa_8_1_8/Des_Moines___Iowa_3_5.jpg",""
"street view slide show","image-button-response","38","138982","0.0-38.0","90130","","","","","","","","","","","","","null","./stim/DesMoines_Iowa_8_1_8/Des_Moines___Iowa_3_1.jpg","null","","","","","","8","","3","./stim/DesMoines_Iowa_8_1_8/Des_Moines___Iowa_3_1.jpg",""
"street view slide show","image-button-response","39","139985","0.0-39.0","90130","","","","","","","","","","","","","null","./stim/DesMoines_Iowa_8_1_8/Des_Moines___Iowa_3_6.jpg","null","","","","","","8","","3","./stim/DesMoines_Iowa_8_1_8/Des_Moines___Iowa_3_6.jpg",""
"street view slide show","image-button-response","40","140989","0.0-40.0","90130","","","","","","","","","","","","","null","./stim/DesMoines_Iowa_8_1_8/Des_Moines___Iowa_3_4.jpg","null","","","","","","8","","3","./stim/DesMoines_Iowa_8_1_8/Des_Moines___Iowa_3_4.jpg",""
"street view slide show","image-button-response","41","141992","0.0-41.0","90130","","","","","","","","","","","","","null","./stim/DesMoines_Iowa_8_1_8/Des_Moines___Iowa_3_2.jpg","null","","","","","","8","","3","./stim/DesMoines_Iowa_8_1_8/Des_Moines___Iowa_3_2.jpg",""
"sv response","survey","42","145583","0.0-42.0","90130","","","","","","","","","","","","","3579","","{""prompt"":null,""ambiguous"":1,""objects"":1,""invisible"":1,""chaos"":1,""complex"":1}","","","","","","","","","","[]"
"","html-button-response","43","147019","0.0-43.0","90130","","","","","","","","","","","","","1436","<div class=""text-container""><h3>Click next to see the next neighborhood.</h3></div><br>","0","","","","","","","","","",""
"street view slide show","image-button-response","44","148022","0.0-44.0","90130","","","","","","","","","","","","","null","./stim/Pau_France_8_1_8/Pau___France_3_5.jpg","null","","","","","","8","","3","./stim/Pau_France_8_1_8/Pau___France_3_5.jpg",""
"street view slide show","image-button-response","45","149024","0.0-45.0","90130","","","","","","","","","","","","","null","./stim/Pau_France_8_1_8/Pau___France_3_7.jpg","null","","","","","","8","","3","./stim/Pau_France_8_1_8/Pau___France_3_7.jpg",""
"street view slide show","image-button-response","46","150027","0.0-46.0","90130","","","","","","","","","","","","","null","./stim/Pau_France_8_1_8/Pau___France_3_4.jpg","null","","","","","","8","","3","./stim/Pau_France_8_1_8/Pau___France_3_4.jpg",""
"street view slide show","image-button-response","47","151029","0.0-47.0","90130","","","","","","","","","","","","","null","./stim/Pau_France_8_1_8/Pau___France_3_3.jpg","null","","","","","","8","","3","./stim/Pau_France_8_1_8/Pau___France_3_3.jpg",""
"street view slide show","image-button-response","48","152033","0.0-48.0","90130","","","","","","","","","","","","","null","./stim/Pau_France_8_1_8/Pau___France_3_1.jpg","null","","","","","","8","","3","./stim/Pau_France_8_1_8/Pau___France_3_1.jpg",""
"sv response","survey","49","156445","0.0-49.0","90130","","","","","","","","","","","","","4398","","{""prompt"":null,""ambiguous"":1,""objects"":1,""invisible"":1,""chaos"":1,""complex"":1}","","","","","","","","","","[]"
"","html-button-response","50","157258","0.0-50.0","90130","","","","","","","","","","","","","812","<div class=""text-container""><h3>Click next to see the next neighborhood.</h3></div><br>","0","","","","","","","","","",""
"street view slide show","image-button-response","51","158261","0.0-51.0","90130","","","","","","","","","","","","","null","./stim/DesMoines_Iowa_8_1_8/Des_Moines___Iowa_5_1.jpg","null","","","","","","8","","5","./stim/DesMoines_Iowa_8_1_8/Des_Moines___Iowa_5_1.jpg",""
"street view slide show","image-button-response","52","159263","0.0-52.0","90130","","","","","","","","","","","","","null","./stim/DesMoines_Iowa_8_1_8/Des_Moines___Iowa_5_3.jpg","null","","","","","","8","","5","./stim/DesMoines_Iowa_8_1_8/Des_Moines___Iowa_5_3.jpg",""
"street view slide show","image-button-response","53","160268","0.0-53.0","90130","","","","","","","","","","","","","null","./stim/DesMoines_Iowa_8_1_8/Des_Moines___Iowa_5_5.jpg","null","","","","","","8","","5","./stim/DesMoines_Iowa_8_1_8/Des_Moines___Iowa_5_5.jpg",""
"street view slide show","image-button-response","54","161271","0.0-54.0","90130","","","","","","","","","","","","","null","./stim/DesMoines_Iowa_8_1_8/Des_Moines___Iowa_5_4.jpg","null","","","","","","8","","5","./stim/DesMoines_Iowa_8_1_8/Des_Moines___Iowa_5_4.jpg",""
"street view slide show","image-button-response","55","162273","0.0-55.0","90130","","","","","","","","","","","","","null","./stim/DesMoines_Iowa_8_1_8/Des_Moines___Iowa_5_2.jpg","null","","","","","","8","","5","./stim/DesMoines_Iowa_8_1_8/Des_Moines___Iowa_5_2.jpg",""
"sv response","survey","56","167107","0.0-56.0","90130","","","","","","","","","","","","","4821","","{""prompt"":null,""ambiguous"":1,""objects"":1,""invisible"":1,""chaos"":1,""complex"":1}","","","","","","","","","","[]"
"","html-button-response","57","168061","0.0-57.0","90130","","","","","","","","","","","","","952","<div class=""text-container""><h3>Click next to see the next neighborhood.</h3></div><br>","0","","","","","","","","","",""
"street view slide show","image-button-response","58","169064","0.0-58.0","90130","","","","","","","","","","","","","null","./stim/Hiroshima_Japan_8_1_8/Hiroshima___Japan_5_3.jpg","null","","","","","","7","","5","./stim/Hiroshima_Japan_8_1_8/Hiroshima___Japan_5_3.jpg",""
"street view slide show","image-button-response","59","170067","0.0-59.0","90130","","","","","","","","","","","","","null","./stim/Hiroshima_Japan_8_1_8/Hiroshima___Japan_5_1.jpg","null","","","","","","7","","5","./stim/Hiroshima_Japan_8_1_8/Hiroshima___Japan_5_1.jpg",""
"street view slide show","image-button-response","60","171070","0.0-60.0","90130","","","","","","","","","","","","","null","./stim/Hiroshima_Japan_8_1_8/Hiroshima___Japan_5_6.jpg","null","","","","","","7","","5","./stim/Hiroshima_Japan_8_1_8/Hiroshima___Japan_5_6.jpg",""
"street view slide show","image-button-response","61","172073","0.0-61.0","90130","","","","","","","","","","","","","null","./stim/Hiroshima_Japan_8_1_8/Hiroshima___Japan_5_7.jpg","null","","","","","","7","","5","./stim/Hiroshima_Japan_8_1_8/Hiroshima___Japan_5_7.jpg",""
"street view slide show","image-button-response","62","173076","0.0-62.0","90130","","","","","","","","","","","","","null","./stim/Hiroshima_Japan_8_1_8/Hiroshima___Japan_5_4.jpg","null","","","","","","7","","5","./stim/Hiroshima_Japan_8_1_8/Hiroshima___Japan_5_4.jpg",""
"sv response","survey","63","177060","0.0-63.0","90130","","","","","","","","","","","","","3972","","{""prompt"":null,""ambiguous"":1,""objects"":1,""invisible"":1,""chaos"":1,""complex"":1}","","","","","","","","","","[]"
"","html-button-response","64","178015","0.0-64.0","90130","","","","","","","","","","","","","954","<div class=""text-container""><h3>Click next to see the next neighborhood.</h3></div><br>","0","","","","","","","","","",""
"street view slide show","image-button-response","65","179018","0.0-65.0","90130","","","","","","","","","","","","","null","./stim/Honolulu_Hawaii_8_1_8/Honolulu___Hawaii_4_4.jpg","null","","","","","","7","","4","./stim/Honolulu_Hawaii_8_1_8/Honolulu___Hawaii_4_4.jpg",""
"street view slide show","image-button-response","66","180021","0.0-66.0","90130","","","","","","","","","","","","","null","./stim/Honolulu_Hawaii_8_1_8/Honolulu___Hawaii_4_5.jpg","null","","","","","","7","","4","./stim/Honolulu_Hawaii_8_1_8/Honolulu___Hawaii_4_5.jpg",""
"street view slide show","image-button-response","67","181024","0.0-67.0","90130","","","","","","","","","","","","","null","./stim/Honolulu_Hawaii_8_1_8/Honolulu___Hawaii_4_3.jpg","null","","","","","","7","","4","./stim/Honolulu_Hawaii_8_1_8/Honolulu___Hawaii_4_3.jpg",""
"street view slide show","image-button-response","68","182027","0.0-68.0","90130","","","","","","","","","","","","","null","./stim/Honolulu_Hawaii_8_1_8/Honolulu___Hawaii_4_2.jpg","null","","","","","","7","","4","./stim/Honolulu_Hawaii_8_1_8/Honolulu___Hawaii_4_2.jpg",""
"street view slide show","image-button-response","69","183031","0.0-69.0","90130","","","","","","","","","","","","","null","./stim/Honolulu_Hawaii_8_1_8/Honolulu___Hawaii_4_1.jpg","null","","","","","","7","","4","./stim/Honolulu_Hawaii_8_1_8/Honolulu___Hawaii_4_1.jpg",""
"sv response","survey","70","187803","0.0-70.0","90130","","","","","","","","","","","","","4759","","{""prompt"":null,""ambiguous"":1,""objects"":1,""invisible"":1,""chaos"":1,""complex"":1}","","","","","","","","","","[]"
"","html-button-response","71","188703","0.0-71.0","90130","","","","","","","","","","","","","900","<div class=""text-container""><h3>Click next to see the next neighborhood.</h3></div><br>","0","","","","","","","","","",""
"street view slide show","image-button-response","72","189705","0.0-72.0","90130","","","","","","","","","","","","","null","./stim/Pau_France_8_1_8/Pau___France_4_2.jpg","null","","","","","","8","","4","./stim/Pau_France_8_1_8/Pau___France_4_2.jpg",""
"street view slide show","image-button-response","73","190708","0.0-73.0","90130","","","","","","","","","","","","","null","./stim/Pau_France_8_1_8/Pau___France_4_4.jpg","null","","","","","","8","","4","./stim/Pau_France_8_1_8/Pau___France_4_4.jpg",""
"street view slide show","image-button-response","74","191711","0.0-74.0","90130","","","","","","","","","","","","","null","./stim/Pau_France_8_1_8/Pau___France_4_5.jpg","null","","","","","","8","","4","./stim/Pau_France_8_1_8/Pau___France_4_5.jpg",""
"street view slide show","image-button-response","75","192713","0.0-75.0","90130","","","","","","","","","","","","","null","./stim/Pau_France_8_1_8/Pau___France_4_1.jpg","null","","","","","","8","","4","./stim/Pau_France_8_1_8/Pau___France_4_1.jpg",""
"street view slide show","image-button-response","76","193715","0.0-76.0","90130","","","","","","","","","","","","","null","./stim/Pau_France_8_1_8/Pau___France_4_3.jpg","null","","","","","","8","","4","./stim/Pau_France_8_1_8/Pau___France_4_3.jpg",""
"sv response","survey","77","202052","0.0-77.0","90130","","","","","","","","","","","","","8324","","{""prompt"":null,""ambiguous"":1,""objects"":1,""invisible"":1,""chaos"":1,""complex"":1}","","","","","","","","","","[]"
"","html-button-response","78","202961","0.0-78.0","90130","","","","","","","","","","","","","908","<div class=""text-container""><h3>Click next to see the next neighborhood.</h3></div><br>","0","","","","","","","","","",""
"street view slide show","image-button-response","79","203964","0.0-79.0","90130","","","","","","","","","","","","","null","./stim/Volgograd_Russia_8_1_8/Volgograd___Russia_2_4.jpg","null","","","","","","7","","2","./stim/Volgograd_Russia_8_1_8/Volgograd___Russia_2_4.jpg",""
"street view slide show","image-button-response","80","204966","0.0-80.0","90130","","","","","","","","","","","","","null","./stim/Volgograd_Russia_8_1_8/Volgograd___Russia_2_1.jpg","null","","","","","","7","","2","./stim/Volgograd_Russia_8_1_8/Volgograd___Russia_2_1.jpg",""
"street view slide show","image-button-response","81","205969","0.0-81.0","90130","","","","","","","","","","","","","null","./stim/Volgograd_Russia_8_1_8/Volgograd___Russia_2_5.jpg","null","","","","","","7","","2","./stim/Volgograd_Russia_8_1_8/Volgograd___Russia_2_5.jpg",""
"street view slide show","image-button-response","82","206971","0.0-82.0","90130","","","","","","","","","","","","","null","./stim/Volgograd_Russia_8_1_8/Volgograd___Russia_2_3.jpg","null","","","","","","7","","2","./stim/Volgograd_Russia_8_1_8/Volgograd___Russia_2_3.jpg",""
"street view slide show","image-button-response","83","207974","0.0-83.0","90130","","","","","","","","","","","","","null","./stim/Volgograd_Russia_8_1_8/Volgograd___Russia_2_2.jpg","null","","","","","","7","","2","./stim/Volgograd_Russia_8_1_8/Volgograd___Russia_2_2.jpg",""
"sv response","survey","84","213141","0.0-84.0","90130","","","","","","","","","","","","","5154","","{""prompt"":null,""ambiguous"":1,""objects"":1,""invisible"":1,""chaos"":1,""complex"":1}","","","","","","","","","","[]"
"","html-button-response","85","214121","0.0-85.0","90130","","","","","","","","","","","","","979","<div class=""text-container""><h3>Click next to see the next neighborhood.</h3></div><br>","0","","","","","","","","","",""
"street view slide show","image-button-response","86","215124","0.0-86.0","90130","","","","","","","","","","","","","null","./stim/SaintEtienne_France_8_1_8/Saint_Etienne___France_2_5.jpg","null","","","","","","8","","2","./stim/SaintEtienne_France_8_1_8/Saint_Etienne___France_2_5.jpg",""
"street view slide show","image-button-response","87","216127","0.0-87.0","90130","","","","","","","","","","","","","null","./stim/SaintEtienne_France_8_1_8/Saint_Etienne___France_2_3.jpg","null","","","","","","8","","2","./stim/SaintEtienne_France_8_1_8/Saint_Etienne___France_2_3.jpg",""
"street view slide show","image-button-response","88","217130","0.0-88.0","90130","","","","","","","","","","","","","null","./stim/SaintEtienne_France_8_1_8/Saint_Etienne___France_2_1.jpg","null","","","","","","8","","2","./stim/SaintEtienne_France_8_1_8/Saint_Etienne___France_2_1.jpg",""
"street view slide show","image-button-response","89","218134","0.0-89.0","90130","","","","","","","","","","","","","null","./stim/SaintEtienne_France_8_1_8/Saint_Etienne___France_2_2.jpg","null","","","","","","8","","2","./stim/SaintEtienne_France_8_1_8/Saint_Etienne___France_2_2.jpg",""
"street view slide show","image-button-response","90","219138","0.0-90.0","90130","","","","","","","","","","","","","null","./stim/SaintEtienne_France_8_1_8/Saint_Etienne___France_2_4.jpg","null","","","","","","8","","2","./stim/SaintEtienne_France_8_1_8/Saint_Etienne___France_2_4.jpg",""
"sv response","survey","91","223800","0.0-91.0","90130","","","","","","","","","","","","","4649","","{""prompt"":null,""ambiguous"":1,""objects"":1,""invisible"":1,""chaos"":1,""complex"":1}","","","","","","","","","","[]"
"","html-button-response","92","224805","0.0-92.0","90130","","","","","","","","","","","","","1005","<div class=""text-container""><h3>Click next to see the next neighborhood.</h3></div><br>","0","","","","","","","","","",""
"street view slide show","image-button-response","93","225808","0.0-93.0","90130","","","","","","","","","","","","","null","./stim/Manila_Philippines_8_1_8/Manila___Philippines_8_4.jpg","null","","","","","","7","","8","./stim/Manila_Philippines_8_1_8/Manila___Philippines_8_4.jpg",""
"street view slide show","image-button-response","94","226812","0.0-94.0","90130","","","","","","","","","","","","","null","./stim/Manila_Philippines_8_1_8/Manila___Philippines_8_5.jpg","null","","","","","","7","","8","./stim/Manila_Philippines_8_1_8/Manila___Philippines_8_5.jpg",""
"street view slide show","image-button-response","95","227815","0.0-95.0","90130","","","","","","","","","","","","","null","./stim/Manila_Philippines_8_1_8/Manila___Philippines_8_2.jpg","null","","","","","","7","","8","./stim/Manila_Philippines_8_1_8/Manila___Philippines_8_2.jpg",""
"street view slide show","image-button-response","96","228818","0.0-96.0","90130","","","","","","","","","","","","","null","./stim/Manila_Philippines_8_1_8/Manila___Philippines_8_1.jpg","null","","","","","","7","","8","./stim/Manila_Philippines_8_1_8/Manila___Philippines_8_1.jpg",""
"street view slide show","image-button-response","97","229821","0.0-97.0","90130","","","","","","","","","","","","","null","./stim/Manila_Philippines_8_1_8/Manila___Philippines_8_3.jpg","null","","","","","","7","","8","./stim/Manila_Philippines_8_1_8/Manila___Philippines_8_3.jpg",""
"sv response","survey","98","234191","0.0-98.0","90130","","","","","","","","","","","","","4356","","{""prompt"":null,""ambiguous"":1,""objects"":1,""invisible"":1,""chaos"":1,""complex"":1}","","","","","","","","","","[]"
"","html-button-response","99","235123","0.0-99.0","90130","","","","","","","","","","","","","931","<div class=""text-container""><h3>Click next to see the next neighborhood.</h3></div><br>","0","","","","","","","","","",""
"street view slide show","image-button-response","100","236125","0.0-100.0","90130","","","","","","","","","","","","","null","./stim/Kofu_Japan_8_1_8/Kofu___Japan_2_4.jpg","null","","","","","","8","","2","./stim/Kofu_Japan_8_1_8/Kofu___Japan_2_4.jpg",""
"street view slide show","image-button-response","101","237127","0.0-101.0","90130","","","","","","","","","","","","","null","./stim/Kofu_Japan_8_1_8/Kofu___Japan_2_3.jpg","null","","","","","","8","","2","./stim/Kofu_Japan_8_1_8/Kofu___Japan_2_3.jpg",""
"street view slide show","image-button-response","102","238130","0.0-102.0","90130","","","","","","","","","","","","","null","./stim/Kofu_Japan_8_1_8/Kofu___Japan_2_1.jpg","null","","","","","","8","","2","./stim/Kofu_Japan_8_1_8/Kofu___Japan_2_1.jpg",""
"street view slide show","image-button-response","103","239133","0.0-103.0","90130","","","","","","","","","","","","","null","./stim/Kofu_Japan_8_1_8/Kofu___Japan_2_5.jpg","null","","","","","","8","","2","./stim/Kofu_Japan_8_1_8/Kofu___Japan_2_5.jpg",""
"street view slide show","image-button-response","104","240137","0.0-104.0","90130","","","","","","","","","","","","","null","./stim/Kofu_Japan_8_1_8/Kofu___Japan_2_2.jpg","null","","","","","","8","","2","./stim/Kofu_Japan_8_1_8/Kofu___Japan_2_2.jpg",""
"sv response","survey","105","246357","0.0-105.0","90130","","","","","","","","","","","","","6208","","{""prompt"":null,""ambiguous"":1,""objects"":1,""invisible"":1,""chaos"":1,""complex"":1}","","","","","","","","","","[]"
"","html-button-response","106","247399","0.0-106.0","90130","","","","","","","","","","","","","1041","<div class=""text-container""><h3>Click next to see the next neighborhood.</h3></div><br>","0","","","","","","","","","",""
"street view slide show","image-button-response","107","248402","0.0-107.0","90130","","","","","","","","","","","","","null","./stim/Volgograd_Russia_8_1_8/Volgograd___Russia_7_3.jpg","null","","","","","","7","","7","./stim/Volgograd_Russia_8_1_8/Volgograd___Russia_7_3.jpg",""
"street view slide show","image-button-response","108","249405","0.0-108.0","90130","","","","","","","","","","","","","null","./stim/Volgograd_Russia_8_1_8/Volgograd___Russia_7_1.jpg","null","","","","","","7","","7","./stim/Volgograd_Russia_8_1_8/Volgograd___Russia_7_1.jpg",""
"street view slide show","image-button-response","109","250407","0.0-109.0","90130","","","","","","","","","","","","","null","./stim/Volgograd_Russia_8_1_8/Volgograd___Russia_7_4.jpg","null","","","","","","7","","7","./stim/Volgograd_Russia_8_1_8/Volgograd___Russia_7_4.jpg",""
"street view slide show","image-button-response","110","251410","0.0-110.0","90130","","","","","","","","","","","","","null","./stim/Volgograd_Russia_8_1_8/Volgograd___Russia_7_2.jpg","null","","","","","","7","","7","./stim/Volgograd_Russia_8_1_8/Volgograd___Russia_7_2.jpg",""
"street view slide show","image-button-response","111","252414","0.0-111.0","90130","","","","","","","","","","","","","null","./stim/Volgograd_Russia_8_1_8/Volgograd___Russia_7_5.jpg","null","","","","","","7","","7","./stim/Volgograd_Russia_8_1_8/Volgograd___Russia_7_5.jpg",""
"sv response","survey","112","258631","0.0-112.0","90130","","","","","","","","","","","","","6200","","{""prompt"":null,""ambiguous"":1,""objects"":1,""invisible"":1,""chaos"":1,""complex"":1}","","","","","","","","","","[]"
"","html-button-response","113","259605","0.0-113.0","90130","","","","","","","","","","","","","973","<div class=""text-container""><h3>Click next to see the next neighborhood.</h3></div><br>","0","","","","","","","","","",""
"street view slide show","image-button-response","114","260608","0.0-114.0","90130","","","","","","","","","","","","","null","./stim/Hiroshima_Japan_8_1_8/Hiroshima___Japan_6_5.jpg","null","","","","","","7","","6","./stim/Hiroshima_Japan_8_1_8/Hiroshima___Japan_6_5.jpg",""
"street view slide show","image-button-response","115","261610","0.0-115.0","90130","","","","","","","","","","","","","null","./stim/Hiroshima_Japan_8_1_8/Hiroshima___Japan_6_2.jpg","null","","","","","","7","","6","./stim/Hiroshima_Japan_8_1_8/Hiroshima___Japan_6_2.jpg",""
"street view slide show","image-button-response","116","262612","0.0-116.0","90130","","","","","","","","","","","","","null","./stim/Hiroshima_Japan_8_1_8/Hiroshima___Japan_6_4.jpg","null","","","","","","7","","6","./stim/Hiroshima_Japan_8_1_8/Hiroshima___Japan_6_4.jpg",""
"street view slide show","image-button-response","117","263614","0.0-117.0","90130","","","","","","","","","","","","","null","./stim/Hiroshima_Japan_8_1_8/Hiroshima___Japan_6_1.jpg","null","","","","","","7","","6","./stim/Hiroshima_Japan_8_1_8/Hiroshima___Japan_6_1.jpg",""
"street view slide show","image-button-response","118","264618","0.0-118.0","90130","","","","","","","","","","","","","null","./stim/Hiroshima_Japan_8_1_8/Hiroshima___Japan_6_3.jpg","null","","","","","","7","","6","./stim/Hiroshima_Japan_8_1_8/Hiroshima___Japan_6_3.jpg",""
"sv response","survey","119","269336","0.0-119.0","90130","","","","","","","","","","","","","4705","","{""prompt"":null,""ambiguous"":1,""objects"":1,""invisible"":1,""chaos"":1,""complex"":1}","","","","","","","","","","[]"
"","html-button-response","120","270727","0.0-120.0","90130","","","","","","","","","","","","","1389","<div class=""text-container""><h3>Click next to see the next neighborhood.</h3></div><br>","0","","","","","","","","","",""
"street view slide show","image-button-response","121","271731","0.0-121.0","90130","","","","","","","","","","","","","null","./stim/SaintEtienne_France_8_1_8/Saint_Etienne___France_3_5.jpg","null","","","","","","8","","3","./stim/SaintEtienne_France_8_1_8/Saint_Etienne___France_3_5.jpg",""
"street view slide show","image-button-response","122","272733","0.0-122.0","90130","","","","","","","","","","","","","null","./stim/SaintEtienne_France_8_1_8/Saint_Etienne___France_3_4.jpg","null","","","","","","8","","3","./stim/SaintEtienne_France_8_1_8/Saint_Etienne___France_3_4.jpg",""
"street view slide show","image-button-response","123","273737","0.0-123.0","90130","","","","","","","","","","","","","null","./stim/SaintEtienne_France_8_1_8/Saint_Etienne___France_3_2.jpg","null","","","","","","8","","3","./stim/SaintEtienne_France_8_1_8/Saint_Etienne___France_3_2.jpg",""
"street view slide show","image-button-response","124","274739","0.0-124.0","90130","","","","","","","","","","","","","null","./stim/SaintEtienne_France_8_1_8/Saint_Etienne___France_3_3.jpg","null","","","","","","8","","3","./stim/SaintEtienne_France_8_1_8/Saint_Etienne___France_3_3.jpg",""
"street view slide show","image-button-response","125","275743","0.0-125.0","90130","","","","","","","","","","","","","null","./stim/SaintEtienne_France_8_1_8/Saint_Etienne___France_3_6.jpg","null","","","","","","8","","3","./stim/SaintEtienne_France_8_1_8/Saint_Etienne___France_3_6.jpg",""
"sv response","survey","126","281433","0.0-126.0","90130","","","","","","","","","","","","","5679","","{""prompt"":null,""ambiguous"":1,""objects"":1,""invisible"":1,""chaos"":1,""complex"":1}","","","","","","","","","","[]"
"","html-button-response","127","282594","0.0-127.0","90130","","","","","","","","","","","","","1159","<div class=""text-container""><h3>Click next to see the next neighborhood.</h3></div><br>","0","","","","","","","","","",""
"street view slide show","image-button-response","128","283597","0.0-128.0","90130","","","","","","","","","","","","","null","./stim/Manila_Philippines_8_1_8/Manila___Philippines_1_4.jpg","null","","","","","","7","","1","./stim/Manila_Philippines_8_1_8/Manila___Philippines_1_4.jpg",""
"street view slide show","image-button-response","129","284599","0.0-129.0","90130","","","","","","","","","","","","","null","./stim/Manila_Philippines_8_1_8/Manila___Philippines_1_1.jpg","null","","","","","","7","","1","./stim/Manila_Philippines_8_1_8/Manila___Philippines_1_1.jpg",""
"street view slide show","image-button-response","130","285603","0.0-130.0","90130","","","","","","","","","","","","","null","./stim/Manila_Philippines_8_1_8/Manila___Philippines_1_3.jpg","null","","","","","","7","","1","./stim/Manila_Philippines_8_1_8/Manila___Philippines_1_3.jpg",""
"street view slide show","image-button-response","131","286606","0.0-131.0","90130","","","","","","","","","","","","","null","./stim/Manila_Philippines_8_1_8/Manila___Philippines_1_5.jpg","null","","","","","","7","","1","./stim/Manila_Philippines_8_1_8/Manila___Philippines_1_5.jpg",""
"street view slide show","image-button-response","132","287609","0.0-132.0","90130","","","","","","","","","","","","","null","./stim/Manila_Philippines_8_1_8/Manila___Philippines_1_2.jpg","null","","","","","","7","","1","./stim/Manila_Philippines_8_1_8/Manila___Philippines_1_2.jpg",""
"sv response","survey","133","293104","0.0-133.0","90130","","","","","","","","","","","","","5479","","{""prompt"":null,""ambiguous"":1,""objects"":1,""invisible"":1,""chaos"":1,""complex"":1}","","","","","","","","","","[]"
"","html-button-response","134","294178","0.0-134.0","90130","","","","","","","","","","","","","1073","<div class=""text-container""><h3>Click next to see the next neighborhood.</h3></div><br>","0","","","","","","","","","",""
"street view slide show","image-button-response","135","295181","0.0-135.0","90130","","","","","","","","","","","","","null","./stim/Manila_Philippines_8_1_8/Manila___Philippines_4_2.jpg","null","","","","","","7","","4","./stim/Manila_Philippines_8_1_8/Manila___Philippines_4_2.jpg",""
"street view slide show","image-button-response","136","296184","0.0-136.0","90130","","","","","","","","","","","","","null","./stim/Manila_Philippines_8_1_8/Manila___Philippines_4_3.jpg","null","","","","","","7","","4","./stim/Manila_Philippines_8_1_8/Manila___Philippines_4_3.jpg",""
"street view slide show","image-button-response","137","297187","0.0-137.0","90130","","","","","","","","","","","","","null","./stim/Manila_Philippines_8_1_8/Manila___Philippines_4_4.jpg","null","","","","","","7","","4","./stim/Manila_Philippines_8_1_8/Manila___Philippines_4_4.jpg",""
"street view slide show","image-button-response","138","298189","0.0-138.0","90130","","","","","","","","","","","","","null","./stim/Manila_Philippines_8_1_8/Manila___Philippines_4_1.jpg","null","","","","","","7","","4","./stim/Manila_Philippines_8_1_8/Manila___Philippines_4_1.jpg",""
"street view slide show","image-button-response","139","299192","0.0-139.0","90130","","","","","","","","","","","","","null","./stim/Manila_Philippines_8_1_8/Manila___Philippines_4_5.jpg","null","","","","","","7","","4","./stim/Manila_Philippines_8_1_8/Manila___Philippines_4_5.jpg",""
"sv response","survey","140","304875","0.0-140.0","90130","","","","","","","","","","","","","5669","","{""prompt"":null,""ambiguous"":1,""objects"":1,""invisible"":1,""chaos"":1,""complex"":1}","","","","","","","","","","[]"
"","html-button-response","141","305878","0.0-141.0","90130","","","","","","","","","","","","","1002","<div class=""text-container""><h3>Click next to see the next neighborhood.</h3></div><br>","0","","","","","","","","","",""
"street view slide show","image-button-response","142","306881","0.0-142.0","90130","","","","","","","","","","","","","null","./stim/DesMoines_Iowa_8_1_8/Des_Moines___Iowa_6_1.jpg","null","","","","","","8","","6","./stim/DesMoines_Iowa_8_1_8/Des_Moines___Iowa_6_1.jpg",""
"street view slide show","image-button-response","143","307883","0.0-143.0","90130","","","","","","","","","","","","","null","./stim/DesMoines_Iowa_8_1_8/Des_Moines___Iowa_6_2.jpg","null","","","","","","8","","6","./stim/DesMoines_Iowa_8_1_8/Des_Moines___Iowa_6_2.jpg",""
"street view slide show","image-button-response","144","308887","0.0-144.0","90130","","","","","","","","","","","","","null","./stim/DesMoines_Iowa_8_1_8/Des_Moines___Iowa_6_5.jpg","null","","","","","","8","","6","./stim/DesMoines_Iowa_8_1_8/Des_Moines___Iowa_6_5.jpg",""
"street view slide show","image-button-response","145","309890","0.0-145.0","90130","","","","","","","","","","","","","null","./stim/DesMoines_Iowa_8_1_8/Des_Moines___Iowa_6_4.jpg","null","","","","","","8","","6","./stim/DesMoines_Iowa_8_1_8/Des_Moines___Iowa_6_4.jpg",""
"street view slide show","image-button-response","146","310893","0.0-146.0","90130","","","","","","","","","","","","","null","./stim/DesMoines_Iowa_8_1_8/Des_Moines___Iowa_6_3.jpg","null","","","","","","8","","6","./stim/DesMoines_Iowa_8_1_8/Des_Moines___Iowa_6_3.jpg",""
"sv response","survey","147","320132","0.0-147.0","90130","","","","","","","","","","","","","9228","","{""prompt"":null,""ambiguous"":1,""objects"":1,""invisible"":1,""chaos"":1,""complex"":1}","","","","","","","","","","[]"
"","html-button-response","148","326217","0.0-148.0","90130","","","","","","","","","","","","","6083","<div class=""text-container""><h3>Click next to see the next neighborhood.</h3></div><br>","0","","","","","","","","","",""
"street view slide show","image-button-response","149","327220","0.0-149.0","90130","","","","","","","","","","","","","null","./stim/DesMoines_Iowa_8_1_8/Des_Moines___Iowa_4_6.jpg","null","","","","","","8","","4","./stim/DesMoines_Iowa_8_1_8/Des_Moines___Iowa_4_6.jpg",""
"street view slide show","image-button-response","150","328225","0.0-150.0","90130","","","","","","","","","","","","","null","./stim/DesMoines_Iowa_8_1_8/Des_Moines___Iowa_4_1.jpg","null","","","","","","8","","4","./stim/DesMoines_Iowa_8_1_8/Des_Moines___Iowa_4_1.jpg",""
"street view slide show","image-button-response","151","329228","0.0-151.0","90130","","","","","","","","","","","","","null","./stim/DesMoines_Iowa_8_1_8/Des_Moines___Iowa_4_2.jpg","null","","","","","","8","","4","./stim/DesMoines_Iowa_8_1_8/Des_Moines___Iowa_4_2.jpg",""
"street view slide show","image-button-response","152","330231","0.0-152.0","90130","","","","","","","","","","","","","null","./stim/DesMoines_Iowa_8_1_8/Des_Moines___Iowa_4_5.jpg","null","","","","","","8","","4","./stim/DesMoines_Iowa_8_1_8/Des_Moines___Iowa_4_5.jpg",""
"street view slide show","image-button-response","153","331235","0.0-153.0","90130","","","","","","","","","","","","","null","./stim/DesMoines_Iowa_8_1_8/Des_Moines___Iowa_4_3.jpg","null","","","","","","8","","4","./stim/DesMoines_Iowa_8_1_8/Des_Moines___Iowa_4_3.jpg",""
"sv response","survey","154","336577","0.0-154.0","90130","","","","","","","","","","","","","5331","","{""prompt"":null,""ambiguous"":1,""objects"":1,""invisible"":1,""chaos"":1,""complex"":1}","","","","","","","","","","[]"
"","html-button-response","155","337381","0.0-155.0","90130","","","","","","","","","","","","","803","<div class=""text-container""><h3>Click next to see the next neighborhood.</h3></div><br>","0","","","","","","","","","",""
"street view slide show","image-button-response","156","338384","0.0-156.0","90130","","","","","","","","","","","","","null","./stim/Honolulu_Hawaii_8_1_8/Honolulu___Hawaii_1_5.jpg","null","","","","","","7","","1","./stim/Honolulu_Hawaii_8_1_8/Honolulu___Hawaii_1_5.jpg",""
"street view slide show","image-button-response","157","339386","0.0-157.0","90130","","","","","","","","","","","","","null","./stim/Honolulu_Hawaii_8_1_8/Honolulu___Hawaii_1_2.jpg","null","","","","","","7","","1","./stim/Honolulu_Hawaii_8_1_8/Honolulu___Hawaii_1_2.jpg",""
"street view slide show","image-button-response","158","340389","0.0-158.0","90130","","","","","","","","","","","","","null","./stim/Honolulu_Hawaii_8_1_8/Honolulu___Hawaii_1_6.jpg","null","","","","","","7","","1","./stim/Honolulu_Hawaii_8_1_8/Honolulu___Hawaii_1_6.jpg",""
"street view slide show","image-button-response","159","341392","0.0-159.0","90130","","","","","","","","","","","","","null","./stim/Honolulu_Hawaii_8_1_8/Honolulu___Hawaii_1_1.jpg","null","","","","","","7","","1","./stim/Honolulu_Hawaii_8_1_8/Honolulu___Hawaii_1_1.jpg",""
"street view slide show","image-button-response","160","342394","0.0-160.0","90130","","","","","","","","","","","","","null","./stim/Honolulu_Hawaii_8_1_8/Honolulu___Hawaii_1_3.jpg","null","","","","","","7","","1","./stim/Honolulu_Hawaii_8_1_8/Honolulu___Hawaii_1_3.jpg",""
"sv response","survey","161","346715","0.0-161.0","90130","","","","","","","","","","","","","4313","","{""prompt"":null,""ambiguous"":1,""objects"":1,""invisible"":1,""chaos"":1,""complex"":1}","","","","","","","","","","[]"
"","html-button-response","162","348114","0.0-162.0","90130","","","","","","","","","","","","","1398","<div class=""text-container""><h3>Click next to see the next neighborhood.</h3></div><br>","0","","","","","","","","","",""
"street view slide show","image-button-response","163","349118","0.0-163.0","90130","","","","","","","","","","","","","null","./stim/Hiroshima_Japan_8_1_8/Hiroshima___Japan_2_1.jpg","null","","","","","","7","","2","./stim/Hiroshima_Japan_8_1_8/Hiroshima___Japan_2_1.jpg",""
"street view slide show","image-button-response","164","350120","0.0-164.0","90130","","","","","","","","","","","","","null","./stim/Hiroshima_Japan_8_1_8/Hiroshima___Japan_2_2.jpg","null","","","","","","7","","2","./stim/Hiroshima_Japan_8_1_8/Hiroshima___Japan_2_2.jpg",""
"street view slide show","image-button-response","165","351124","0.0-165.0","90130","","","","","","","","","","","","","null","./stim/Hiroshima_Japan_8_1_8/Hiroshima___Japan_2_5.jpg","null","","","","","","7","","2","./stim/Hiroshima_Japan_8_1_8/Hiroshima___Japan_2_5.jpg",""
"street view slide show","image-button-response","166","352126","0.0-166.0","90130","","","","","","","","","","","","","null","./stim/Hiroshima_Japan_8_1_8/Hiroshima___Japan_2_4.jpg","null","","","","","","7","","2","./stim/Hiroshima_Japan_8_1_8/Hiroshima___Japan_2_4.jpg",""
"street view slide show","image-button-response","167","353129","0.0-167.0","90130","","","","","","","","","","","","","null","./stim/Hiroshima_Japan_8_1_8/Hiroshima___Japan_2_3.jpg","null","","","","","","7","","2","./stim/Hiroshima_Japan_8_1_8/Hiroshima___Japan_2_3.jpg",""
"sv response","survey","168","361087","0.0-168.0","90130","","","","","","","","","","","","","7949","","{""prompt"":null,""ambiguous"":1,""objects"":1,""invisible"":1,""chaos"":1,""complex"":1}","","","","","","","","","","[]"
"","html-button-response","169","362089","0.0-169.0","90130","","","","","","","","","","","","","1000","<div class=""text-container""><h3>Click next to see the next neighborhood.</h3></div><br>","0","","","","","","","","","",""
"street view slide show","image-button-response","170","363092","0.0-170.0","90130","","","","","","","","","","","","","null","./stim/Hiroshima_Japan_8_1_8/Hiroshima___Japan_3_3.jpg","null","","","","","","7","","3","./stim/Hiroshima_Japan_8_1_8/Hiroshima___Japan_3_3.jpg",""
"street view slide show","image-button-response","171","364095","0.0-171.0","90130","","","","","","","","","","","","","null","./stim/Hiroshima_Japan_8_1_8/Hiroshima___Japan_3_1.jpg","null","","","","","","7","","3","./stim/Hiroshima_Japan_8_1_8/Hiroshima___Japan_3_1.jpg",""
"street view slide show","image-button-response","172","365099","0.0-172.0","90130","","","","","","","","","","","","","null","./stim/Hiroshima_Japan_8_1_8/Hiroshima___Japan_3_2.jpg","null","","","","","","7","","3","./stim/Hiroshima_Japan_8_1_8/Hiroshima___Japan_3_2.jpg",""
"street view slide show","image-button-response","173","366101","0.0-173.0","90130","","","","","","","","","","","","","null","./stim/Hiroshima_Japan_8_1_8/Hiroshima___Japan_3_5.jpg","null","","","","","","7","","3","./stim/Hiroshima_Japan_8_1_8/Hiroshima___Japan_3_5.jpg",""
"street view slide show","image-button-response","174","367105","0.0-174.0","90130","","","","","","","","","","","","","null","./stim/Hiroshima_Japan_8_1_8/Hiroshima___Japan_3_4.jpg","null","","","","","","7","","3","./stim/Hiroshima_Japan_8_1_8/Hiroshima___Japan_3_4.jpg",""
"sv response","survey","175","371758","0.0-175.0","90130","","","","","","","","","","","","","4639","","{""prompt"":null,""ambiguous"":1,""objects"":1,""invisible"":1,""chaos"":1,""complex"":1}","","","","","","","","","","[]"
"half-way","html-button-response","176","376211","0.0-176.0","90130","","","","","","","","","","","","","4452","
<h3>You are now half way through the study.</h3>
<p>Please take a quick, 15-second break before you continue.</p>
<img src='assets/img/countdown-15.gif'>
<p>The study will automatically advance forward after the countdown is complete. However, you may click ""Next"" to advance forward now if you wish.</p>
","0","","","","","","","","","",""
"","html-button-response","177","377199","0.0-177.0","90130","","","","","","","","","","","","","987","<div class=""text-container""><h3>Click next to see the next neighborhood.</h3></div><br>","0","","","","","","","","","",""
"street view slide show","image-button-response","178","378203","0.0-178.0","90130","","","","","","","","","","","","","null","./stim/Volgograd_Russia_8_1_8/Volgograd___Russia_4_3.jpg","null","","","","","","7","","4","./stim/Volgograd_Russia_8_1_8/Volgograd___Russia_4_3.jpg",""
"street view slide show","image-button-response","179","379205","0.0-179.0","90130","","","","","","","","","","","","","null","./stim/Volgograd_Russia_8_1_8/Volgograd___Russia_4_5.jpg","null","","","","","","7","","4","./stim/Volgograd_Russia_8_1_8/Volgograd___Russia_4_5.jpg",""
"street view slide show","image-button-response","180","380208","0.0-180.0","90130","","","","","","","","","","","","","null","./stim/Volgograd_Russia_8_1_8/Volgograd___Russia_4_4.jpg","null","","","","","","7","","4","./stim/Volgograd_Russia_8_1_8/Volgograd___Russia_4_4.jpg",""
"street view slide show","image-button-response","181","381210","0.0-181.0","90130","","","","","","","","","","","","","null","./stim/Volgograd_Russia_8_1_8/Volgograd___Russia_4_2.jpg","null","","","","","","7","","4","./stim/Volgograd_Russia_8_1_8/Volgograd___Russia_4_2.jpg",""
"street view slide show","image-button-response","182","382213","0.0-182.0","90130","","","","","","","","","","","","","null","./stim/Volgograd_Russia_8_1_8/Volgograd___Russia_4_1.jpg","null","","","","","","7","","4","./stim/Volgograd_Russia_8_1_8/Volgograd___Russia_4_1.jpg",""
"sv response","survey","183","386323","0.0-183.0","90130","","","","","","","","","","","","","4097","","{""prompt"":null,""ambiguous"":1,""objects"":1,""invisible"":1,""chaos"":1,""complex"":1}","","","","","","","","","","[]"
"","html-button-response","184","387231","0.0-184.0","90130","","","","","","","","","","","","","906","<div class=""text-container""><h3>Click next to see the next neighborhood.</h3></div><br>","0","","","","","","","","","",""
"street view slide show","image-button-response","185","388234","0.0-185.0","90130","","","","","","","","","","","","","null","./stim/Kofu_Japan_8_1_8/Kofu___Japan_4_7.jpg","null","","","","","","8","","4","./stim/Kofu_Japan_8_1_8/Kofu___Japan_4_7.jpg",""
"street view slide show","image-button-response","186","389236","0.0-186.0","90130","","","","","","","","","","","","","null","./stim/Kofu_Japan_8_1_8/Kofu___Japan_4_1.jpg","null","","","","","","8","","4","./stim/Kofu_Japan_8_1_8/Kofu___Japan_4_1.jpg",""
"street view slide show","image-button-response","187","390240","0.0-187.0","90130","","","","","","","","","","","","","null","./stim/Kofu_Japan_8_1_8/Kofu___Japan_4_8.jpg","null","","","","","","8","","4","./stim/Kofu_Japan_8_1_8/Kofu___Japan_4_8.jpg",""
"street view slide show","image-button-response","188","391242","0.0-188.0","90130","","","","","","","","","","","","","null","./stim/Kofu_Japan_8_1_8/Kofu___Japan_4_4.jpg","null","","","","","","8","","4","./stim/Kofu_Japan_8_1_8/Kofu___Japan_4_4.jpg",""
"street view slide show","image-button-response","189","392246","0.0-189.0","90130","","","","","","","","","","","","","null","./stim/Kofu_Japan_8_1_8/Kofu___Japan_4_5.jpg","null","","","","","","8","","4","./stim/Kofu_Japan_8_1_8/Kofu___Japan_4_5.jpg",""
"sv response","survey","190","395859","0.0-190.0","90130","","","","","","","","","","","","","3600","","{""prompt"":null,""ambiguous"":1,""objects"":1,""invisible"":1,""chaos"":1,""complex"":1}","","","","","","","","","","[]"
"","html-button-response","191","397448","0.0-191.0","90130","","","","","","","","","","","","","1588","<div class=""text-container""><h3>Click next to see the next neighborhood.</h3></div><br>","0","","","","","","","","","",""
"street view slide show","image-button-response","192","398451","0.0-192.0","90130","","","","","","","","","","","","","null","./stim/SaintEtienne_France_8_1_8/Saint_Etienne___France_5_5.jpg","null","","","","","","8","","5","./stim/SaintEtienne_France_8_1_8/Saint_Etienne___France_5_5.jpg",""
"street view slide show","image-button-response","193","399454","0.0-193.0","90130","","","","","","","","","","","","","null","./stim/SaintEtienne_France_8_1_8/Saint_Etienne___France_5_3.jpg","null","","","","","","8","","5","./stim/SaintEtienne_France_8_1_8/Saint_Etienne___France_5_3.jpg",""
"street view slide show","image-button-response","194","400457","0.0-194.0","90130","","","","","","","","","","","","","null","./stim/SaintEtienne_France_8_1_8/Saint_Etienne___France_5_4.jpg","null","","","","","","8","","5","./stim/SaintEtienne_France_8_1_8/Saint_Etienne___France_5_4.jpg",""
"street view slide show","image-button-response","195","401460","0.0-195.0","90130","","","","","","","","","","","","","null","./stim/SaintEtienne_France_8_1_8/Saint_Etienne___France_5_1.jpg","null","","","","","","8","","5","./stim/SaintEtienne_France_8_1_8/Saint_Etienne___France_5_1.jpg",""
"street view slide show","image-button-response","196","402464","0.0-196.0","90130","","","","","","","","","","","","","null","./stim/SaintEtienne_France_8_1_8/Saint_Etienne___France_5_2.jpg","null","","","","","","8","","5","./stim/SaintEtienne_France_8_1_8/Saint_Etienne___France_5_2.jpg",""
"sv response","survey","197","409934","0.0-197.0","90130","","","","","","","","","","","","","7456","","{""prompt"":null,""ambiguous"":1,""objects"":1,""invisible"":1,""chaos"":1,""complex"":1}","","","","","","","","","","[]"
"","html-button-response","198","410819","0.0-198.0","90130","","","","","","","","","","","","","883","<div class=""text-container""><h3>Click next to see the next neighborhood.</h3></div><br>","0","","","","","","","","","",""
"street view slide show","image-button-response","199","411822","0.0-199.0","90130","","","","","","","","","","","","","null","./stim/Pau_France_8_1_8/Pau___France_5_5.jpg","null","","","","","","8","","5","./stim/Pau_France_8_1_8/Pau___France_5_5.jpg",""
"street view slide show","image-button-response","200","412825","0.0-200.0","90130","","","","","","","","","","","","","null","./stim/Pau_France_8_1_8/Pau___France_5_3.jpg","null","","","","","","8","","5","./stim/Pau_France_8_1_8/Pau___France_5_3.jpg",""
"street view slide show","image-button-response","201","413828","0.0-201.0","90130","","","","","","","","","","","","","null","./stim/Pau_France_8_1_8/Pau___France_5_4.jpg","null","","","","","","8","","5","./stim/Pau_France_8_1_8/Pau___France_5_4.jpg",""
"street view slide show","image-button-response","202","414831","0.0-202.0","90130","","","","","","","","","","","","","null","./stim/Pau_France_8_1_8/Pau___France_5_1.jpg","null","","","","","","8","","5","./stim/Pau_France_8_1_8/Pau___France_5_1.jpg",""
"street view slide show","image-button-response","203","415834","0.0-203.0","90130","","","","","","","","","","","","","null","./stim/Pau_France_8_1_8/Pau___France_5_2.jpg","null","","","","","","8","","5","./stim/Pau_France_8_1_8/Pau___France_5_2.jpg",""
"sv response","survey","204","420938","0.0-204.0","90130","","","","","","","","","","","","","5090","","{""prompt"":null,""ambiguous"":1,""objects"":1,""invisible"":1,""chaos"":1,""complex"":1}","","","","","","","","","","[]"
"","html-button-response","205","421823","0.0-205.0","90130","","","","","","","","","","","","","884","<div class=""text-container""><h3>Click next to see the next neighborhood.</h3></div><br>","0","","","","","","","","","",""
"street view slide show","image-button-response","206","422826","0.0-206.0","90130","","","","","","","","","","","","","null","./stim/Kofu_Japan_8_1_8/Kofu___Japan_5_3.jpg","null","","","","","","8","","5","./stim/Kofu_Japan_8_1_8/Kofu___Japan_5_3.jpg",""
"street view slide show","image-button-response","207","423829","0.0-207.0","90130","","","","","","","","","","","","","null","./stim/Kofu_Japan_8_1_8/Kofu___Japan_5_5.jpg","null","","","","","","8","","5","./stim/Kofu_Japan_8_1_8/Kofu___Japan_5_5.jpg",""
"street view slide show","image-button-response","208","424832","0.0-208.0","90130","","","","","","","","","","","","","null","./stim/Kofu_Japan_8_1_8/Kofu___Japan_5_2.jpg","null","","","","","","8","","5","./stim/Kofu_Japan_8_1_8/Kofu___Japan_5_2.jpg",""
"street view slide show","image-button-response","209","425835","0.0-209.0","90130","","","","","","","","","","","","","null","./stim/Kofu_Japan_8_1_8/Kofu___Japan_5_4.jpg","null","","","","","","8","","5","./stim/Kofu_Japan_8_1_8/Kofu___Japan_5_4.jpg",""
"street view slide show","image-button-response","210","426838","0.0-210.0","90130","","","","","","","","","","","","","null","./stim/Kofu_Japan_8_1_8/Kofu___Japan_5_1.jpg","null","","","","","","8","","5","./stim/Kofu_Japan_8_1_8/Kofu___Japan_5_1.jpg",""
"sv response","survey","211","431100","0.0-211.0","90130","","","","","","","","","","","","","4251","","{""prompt"":null,""ambiguous"":1,""objects"":1,""invisible"":1,""chaos"":1,""complex"":1}","","","","","","","","","","[]"
"","html-button-response","212","432242","0.0-212.0","90130","","","","","","","","","","","","","1141","<div class=""text-container""><h3>Click next to see the next neighborhood.</h3></div><br>","0","","","","","","","","","",""
"street view slide show","image-button-response","213","433244","0.0-213.0","90130","","","","","","","","","","","","","null","./stim/Manila_Philippines_8_1_8/Manila___Philippines_3_5.jpg","null","","","","","","7","","3","./stim/Manila_Philippines_8_1_8/Manila___Philippines_3_5.jpg",""
"street view slide show","image-button-response","214","434247","0.0-214.0","90130","","","","","","","","","","","","","null","./stim/Manila_Philippines_8_1_8/Manila___Philippines_3_2.jpg","null","","","","","","7","","3","./stim/Manila_Philippines_8_1_8/Manila___Philippines_3_2.jpg",""
"street view slide show","image-button-response","215","435250","0.0-215.0","90130","","","","","","","","","","","","","null","./stim/Manila_Philippines_8_1_8/Manila___Philippines_3_1.jpg","null","","","","","","7","","3","./stim/Manila_Philippines_8_1_8/Manila___Philippines_3_1.jpg",""
"street view slide show","image-button-response","216","436252","0.0-216.0","90130","","","","","","","","","","","","","null","./stim/Manila_Philippines_8_1_8/Manila___Philippines_3_3.jpg","null","","","","","","7","","3","./stim/Manila_Philippines_8_1_8/Manila___Philippines_3_3.jpg",""
"street view slide show","image-button-response","217","437255","0.0-217.0","90130","","","","","","","","","","","","","null","./stim/Manila_Philippines_8_1_8/Manila___Philippines_3_4.jpg","null","","","","","","7","","3","./stim/Manila_Philippines_8_1_8/Manila___Philippines_3_4.jpg",""
"sv response","survey","218","443621","0.0-218.0","90130","","","","","","","","","","","","","6354","","{""prompt"":null,""ambiguous"":1,""objects"":1,""invisible"":1,""chaos"":1,""complex"":1}","","","","","","","","","","[]"
"","html-button-response","219","444578","0.0-219.0","90130","","","","","","","","","","","","","955","<div class=""text-container""><h3>Click next to see the next neighborhood.</h3></div><br>","0","","","","","","","","","",""
"street view slide show","image-button-response","220","445581","0.0-220.0","90130","","","","","","","","","","","","","null","./stim/Hiroshima_Japan_8_1_8/Hiroshima___Japan_4_4.jpg","null","","","","","","7","","4","./stim/Hiroshima_Japan_8_1_8/Hiroshima___Japan_4_4.jpg",""
"street view slide show","image-button-response","221","446583","0.0-221.0","90130","","","","","","","","","","","","","null","./stim/Hiroshima_Japan_8_1_8/Hiroshima___Japan_4_2.jpg","null","","","","","","7","","4","./stim/Hiroshima_Japan_8_1_8/Hiroshima___Japan_4_2.jpg",""
"street view slide show","image-button-response","222","447585","0.0-222.0","90130","","","","","","","","","","","","","null","./stim/Hiroshima_Japan_8_1_8/Hiroshima___Japan_4_5.jpg","null","","","","","","7","","4","./stim/Hiroshima_Japan_8_1_8/Hiroshima___Japan_4_5.jpg",""
"street view slide show","image-button-response","223","448587","0.0-223.0","90130","","","","","","","","","","","","","null","./stim/Hiroshima_Japan_8_1_8/Hiroshima___Japan_4_3.jpg","null","","","","","","7","","4","./stim/Hiroshima_Japan_8_1_8/Hiroshima___Japan_4_3.jpg",""
"street view slide show","image-button-response","224","449591","0.0-224.0","90130","","","","","","","","","","","","","null","./stim/Hiroshima_Japan_8_1_8/Hiroshima___Japan_4_1.jpg","null","","","","","","7","","4","./stim/Hiroshima_Japan_8_1_8/Hiroshima___Japan_4_1.jpg",""
"sv response","survey","225","453946","0.0-225.0","90130","","","","","","","","","","","","","4344","","{""prompt"":null,""ambiguous"":1,""objects"":1,""invisible"":1,""chaos"":1,""complex"":1}","","","","","","","","","","[]"
"","html-button-response","226","454999","0.0-226.0","90130","","","","","","","","","","","","","1052","<div class=""text-container""><h3>Click next to see the next neighborhood.</h3></div><br>","0","","","","","","","","","",""
"street view slide show","image-button-response","227","456002","0.0-227.0","90130","","","","","","","","","","","","","null","./stim/Hiroshima_Japan_8_1_8/Hiroshima___Japan_1_6.jpg","null","","","","","","7","","1","./stim/Hiroshima_Japan_8_1_8/Hiroshima___Japan_1_6.jpg",""
"street view slide show","image-button-response","228","457004","0.0-228.0","90130","","","","","","","","","","","","","null","./stim/Hiroshima_Japan_8_1_8/Hiroshima___Japan_1_4.jpg","null","","","","","","7","","1","./stim/Hiroshima_Japan_8_1_8/Hiroshima___Japan_1_4.jpg",""
"street view slide show","image-button-response","229","458006","0.0-229.0","90130","","","","","","","","","","","","","null","./stim/Hiroshima_Japan_8_1_8/Hiroshima___Japan_1_1.jpg","null","","","","","","7","","1","./stim/Hiroshima_Japan_8_1_8/Hiroshima___Japan_1_1.jpg",""
"street view slide show","image-button-response","230","459008","0.0-230.0","90130","","","","","","","","","","","","","null","./stim/Hiroshima_Japan_8_1_8/Hiroshima___Japan_1_8.jpg","null","","","","","","7","","1","./stim/Hiroshima_Japan_8_1_8/Hiroshima___Japan_1_8.jpg",""
"street view slide show","image-button-response","231","460012","0.0-231.0","90130","","","","","","","","","","","","","null","./stim/Hiroshima_Japan_8_1_8/Hiroshima___Japan_1_3.jpg","null","","","","","","7","","1","./stim/Hiroshima_Japan_8_1_8/Hiroshima___Japan_1_3.jpg",""
"sv response","survey","232","464760","0.0-232.0","90130","","","","","","","","","","","","","4735","","{""prompt"":null,""ambiguous"":1,""objects"":1,""invisible"":1,""chaos"":1,""complex"":1}","","","","","","","","","","[]"
"","html-button-response","233","465850","0.0-233.0","90130","","","","","","","","","","","","","1089","<div class=""text-container""><h3>Click next to see the next neighborhood.</h3></div><br>","0","","","","","","","","","",""
"street view slide show","image-button-response","234","466854","0.0-234.0","90130","","","","","","","","","","","","","null","./stim/SaintEtienne_France_8_1_8/Saint_Etienne___France_4_1.jpg","null","","","","","","8","","4","./stim/SaintEtienne_France_8_1_8/Saint_Etienne___France_4_1.jpg",""
"street view slide show","image-button-response","235","467856","0.0-235.0","90130","","","","","","","","","","","","","null","./stim/SaintEtienne_France_8_1_8/Saint_Etienne___France_4_4.jpg","null","","","","","","8","","4","./stim/SaintEtienne_France_8_1_8/Saint_Etienne___France_4_4.jpg",""
"street view slide show","image-button-response","236","468860","0.0-236.0","90130","","","","","","","","","","","","","null","./stim/SaintEtienne_France_8_1_8/Saint_Etienne___France_4_2.jpg","null","","","","","","8","","4","./stim/SaintEtienne_France_8_1_8/Saint_Etienne___France_4_2.jpg",""
"street view slide show","image-button-response","237","469863","0.0-237.0","90130","","","","","","","","","","","","","null","./stim/SaintEtienne_France_8_1_8/Saint_Etienne___France_4_3.jpg","null","","","","","","8","","4","./stim/SaintEtienne_France_8_1_8/Saint_Etienne___France_4_3.jpg",""
"street view slide show","image-button-response","238","470866","0.0-238.0","90130","","","","","","","","","","","","","null","./stim/SaintEtienne_France_8_1_8/Saint_Etienne___France_4_5.jpg","null","","","","","","8","","4","./stim/SaintEtienne_France_8_1_8/Saint_Etienne___France_4_5.jpg",""
"sv response","survey","239","480719","0.0-239.0","90130","","","","","","","","","","","","","9840","","{""prompt"":null,""ambiguous"":1,""objects"":1,""invisible"":1,""chaos"":1,""complex"":1}","","","","","","","","","","[]"
"","html-button-response","240","484912","0.0-240.0","90130","","","","","","","","","","","","","4191","<div class=""text-container""><h3>Click next to see the next neighborhood.</h3></div><br>","0","","","","","","","","","",""
"street view slide show","image-button-response","241","485915","0.0-241.0","90130","","","","","","","","","","","","","null","./stim/Volgograd_Russia_8_1_8/Volgograd___Russia_3_2.jpg","null","","","","","","7","","3","./stim/Volgograd_Russia_8_1_8/Volgograd___Russia_3_2.jpg",""
"street view slide show","image-button-response","242","486918","0.0-242.0","90130","","","","","","","","","","","","","null","./stim/Volgograd_Russia_8_1_8/Volgograd___Russia_3_4.jpg","null","","","","","","7","","3","./stim/Volgograd_Russia_8_1_8/Volgograd___Russia_3_4.jpg",""
"street view slide show","image-button-response","243","487922","0.0-243.0","90130","","","","","","","","","","","","","null","./stim/Volgograd_Russia_8_1_8/Volgograd___Russia_3_3.jpg","null","","","","","","7","","3","./stim/Volgograd_Russia_8_1_8/Volgograd___Russia_3_3.jpg",""
"street view slide show","image-button-response","244","488924","0.0-244.0","90130","","","","","","","","","","","","","null","./stim/Volgograd_Russia_8_1_8/Volgograd___Russia_3_5.jpg","null","","","","","","7","","3","./stim/Volgograd_Russia_8_1_8/Volgograd___Russia_3_5.jpg",""
"street view slide show","image-button-response","245","489926","0.0-245.0","90130","","","","","","","","","","","","","null","./stim/Volgograd_Russia_8_1_8/Volgograd___Russia_3_1.jpg","null","","","","","","7","","3","./stim/Volgograd_Russia_8_1_8/Volgograd___Russia_3_1.jpg",""
"sv response","survey","246","494293","0.0-246.0","90130","","","","","","","","","","","","","4354","","{""prompt"":null,""ambiguous"":1,""objects"":1,""invisible"":1,""chaos"":1,""complex"":1}","","","","","","","","","","[]"
"","html-button-response","247","497539","0.0-247.0","90130","","","","","","","","","","","","","3245","<div class=""text-container""><h3>Click next to see the next neighborhood.</h3></div><br>","0","","","","","","","","","",""
"street view slide show","image-button-response","248","498542","0.0-248.0","90130","","","","","","","","","","","","","null","./stim/Honolulu_Hawaii_8_1_8/Honolulu___Hawaii_3_1.jpg","null","","","","","","7","","3","./stim/Honolulu_Hawaii_8_1_8/Honolulu___Hawaii_3_1.jpg",""
"street view slide show","image-button-response","249","499545","0.0-249.0","90130","","","","","","","","","","","","","null","./stim/Honolulu_Hawaii_8_1_8/Honolulu___Hawaii_3_2.jpg","null","","","","","","7","","3","./stim/Honolulu_Hawaii_8_1_8/Honolulu___Hawaii_3_2.jpg",""
"street view slide show","image-button-response","250","500548","0.0-250.0","90130","","","","","","","","","","","","","null","./stim/Honolulu_Hawaii_8_1_8/Honolulu___Hawaii_3_6.jpg","null","","","","","","7","","3","./stim/Honolulu_Hawaii_8_1_8/Honolulu___Hawaii_3_6.jpg",""
"street view slide show","image-button-response","251","501551","0.0-251.0","90130","","","","","","","","","","","","","null","./stim/Honolulu_Hawaii_8_1_8/Honolulu___Hawaii_3_4.jpg","null","","","","","","7","","3","./stim/Honolulu_Hawaii_8_1_8/Honolulu___Hawaii_3_4.jpg",""
"street view slide show","image-button-response","252","502554","0.0-252.0","90130","","","","","","","","","","","","","null","./stim/Honolulu_Hawaii_8_1_8/Honolulu___Hawaii_3_5.jpg","null","","","","","","7","","3","./stim/Honolulu_Hawaii_8_1_8/Honolulu___Hawaii_3_5.jpg",""
"sv response","survey","253","507131","0.0-253.0","90130","","","","","","","","","","","","","4565","","{""prompt"":null,""ambiguous"":1,""objects"":1,""invisible"":1,""chaos"":1,""complex"":1}","","","","","","","","","","[]"
"","html-button-response","254","508055","0.0-254.0","90130","","","","","","","","","","","","","923","<div class=""text-container""><h3>Click next to see the next neighborhood.</h3></div><br>","0","","","","","","","","","",""
"street view slide show","image-button-response","255","509058","0.0-255.0","90130","","","","","","","","","","","","","null","./stim/Kofu_Japan_8_1_8/Kofu___Japan_6_1.jpg","null","","","","","","8","","6","./stim/Kofu_Japan_8_1_8/Kofu___Japan_6_1.jpg",""
"street view slide show","image-button-response","256","510060","0.0-256.0","90130","","","","","","","","","","","","","null","./stim/Kofu_Japan_8_1_8/Kofu___Japan_6_5.jpg","null","","","","","","8","","6","./stim/Kofu_Japan_8_1_8/Kofu___Japan_6_5.jpg",""
"street view slide show","image-button-response","257","511064","0.0-257.0","90130","","","","","","","","","","","","","null","./stim/Kofu_Japan_8_1_8/Kofu___Japan_6_4.jpg","null","","","","","","8","","6","./stim/Kofu_Japan_8_1_8/Kofu___Japan_6_4.jpg",""
"street view slide show","image-button-response","258","512066","0.0-258.0","90130","","","","","","","","","","","","","null","./stim/Kofu_Japan_8_1_8/Kofu___Japan_6_3.jpg","null","","","","","","8","","6","./stim/Kofu_Japan_8_1_8/Kofu___Japan_6_3.jpg",""
"street view slide show","image-button-response","259","513069","0.0-259.0","90130","","","","","","","","","","","","","null","./stim/Kofu_Japan_8_1_8/Kofu___Japan_6_2.jpg","null","","","","","","8","","6","./stim/Kofu_Japan_8_1_8/Kofu___Japan_6_2.jpg",""
"sv response","survey","260","521071","0.0-260.0","90130","","","","","","","","","","","","","7990","","{""prompt"":null,""ambiguous"":1,""objects"":1,""invisible"":1,""chaos"":1,""complex"":1}","","","","","","","","","","[]"
"","html-button-response","261","521957","0.0-261.0","90130","","","","","","","","","","","","","884","<div class=""text-container""><h3>Click next to see the next neighborhood.</h3></div><br>","0","","","","","","","","","",""
"street view slide show","image-button-response","262","522960","0.0-262.0","90130","","","","","","","","","","","","","null","./stim/Pau_France_8_1_8/Pau___France_1_1.jpg","null","","","","","","8","","1","./stim/Pau_France_8_1_8/Pau___France_1_1.jpg",""
"street view slide show","image-button-response","263","523963","0.0-263.0","90130","","","","","","","","","","","","","null","./stim/Pau_France_8_1_8/Pau___France_1_5.jpg","null","","","","","","8","","1","./stim/Pau_France_8_1_8/Pau___France_1_5.jpg",""
"street view slide show","image-button-response","264","524966","0.0-264.0","90130","","","","","","","","","","","","","null","./stim/Pau_France_8_1_8/Pau___France_1_2.jpg","null","","","","","","8","","1","./stim/Pau_France_8_1_8/Pau___France_1_2.jpg",""
"street view slide show","image-button-response","265","525969","0.0-265.0","90130","","","","","","","","","","","","","null","./stim/Pau_France_8_1_8/Pau___France_1_4.jpg","null","","","","","","8","","1","./stim/Pau_France_8_1_8/Pau___France_1_4.jpg",""
"street view slide show","image-button-response","266","526974","0.0-266.0","90130","","","","","","","","","","","","","null","./stim/Pau_France_8_1_8/Pau___France_1_3.jpg","null","","","","","","8","","1","./stim/Pau_France_8_1_8/Pau___France_1_3.jpg",""
"sv response","survey","267","532101","0.0-267.0","90130","","","","","","","","","","","","","5121","","{""prompt"":null,""ambiguous"":1,""objects"":1,""invisible"":1,""chaos"":1,""complex"":1}","","","","","","","","","","[]"
"","html-button-response","268","533057","0.0-268.0","90130","","","","","","","","","","","","","955","<div class=""text-container""><h3>Click next to see the next neighborhood.</h3></div><br>","0","","","","","","","","","",""
"street view slide show","image-button-response","269","534060","0.0-269.0","90130","","","","","","","","","","","","","null","./stim/Volgograd_Russia_8_1_8/Volgograd___Russia_6_5.jpg","null","","","","","","7","","6","./stim/Volgograd_Russia_8_1_8/Volgograd___Russia_6_5.jpg",""
"street view slide show","image-button-response","270","535063","0.0-270.0","90130","","","","","","","","","","","","","null","./stim/Volgograd_Russia_8_1_8/Volgograd___Russia_6_3.jpg","null","","","","","","7","","6","./stim/Volgograd_Russia_8_1_8/Volgograd___Russia_6_3.jpg",""
"street view slide show","image-button-response","271","536066","0.0-271.0","90130","","","","","","","","","","","","","null","./stim/Volgograd_Russia_8_1_8/Volgograd___Russia_6_1.jpg","null","","","","","","7","","6","./stim/Volgograd_Russia_8_1_8/Volgograd___Russia_6_1.jpg",""
"street view slide show","image-button-response","272","537070","0.0-272.0","90130","","","","","","","","","","","","","null","./stim/Volgograd_Russia_8_1_8/Volgograd___Russia_6_2.jpg","null","","","","","","7","","6","./stim/Volgograd_Russia_8_1_8/Volgograd___Russia_6_2.jpg",""
"street view slide show","image-button-response","273","538073","0.0-273.0","90130","","","","","","","","","","","","","null","./stim/Volgograd_Russia_8_1_8/Volgograd___Russia_6_4.jpg","null","","","","","","7","","6","./stim/Volgograd_Russia_8_1_8/Volgograd___Russia_6_4.jpg",""
"sv response","survey","274","542241","0.0-274.0","90130","","","","","","","","","","","","","4161","","{""prompt"":null,""ambiguous"":1,""objects"":1,""invisible"":1,""chaos"":1,""complex"":1}","","","","","","","","","","[]"
"","html-button-response","275","543496","0.0-275.0","90130","","","","","","","","","","","","","1254","<div class=""text-container""><h3>Click next to see the next neighborhood.</h3></div><br>","0","","","","","","","","","",""
"street view slide show","image-button-response","276","544498","0.0-276.0","90130","","","","","","","","","","","","","null","./stim/Kofu_Japan_8_1_8/Kofu___Japan_3_3.jpg","null","","","","","","8","","3","./stim/Kofu_Japan_8_1_8/Kofu___Japan_3_3.jpg",""
"street view slide show","image-button-response","277","545501","0.0-277.0","90130","","","","","","","","","","","","","null","./stim/Kofu_Japan_8_1_8/Kofu___Japan_3_1.jpg","null","","","","","","8","","3","./stim/Kofu_Japan_8_1_8/Kofu___Japan_3_1.jpg",""
"street view slide show","image-button-response","278","546505","0.0-278.0","90130","","","","","","","","","","","","","null","./stim/Kofu_Japan_8_1_8/Kofu___Japan_3_7.jpg","null","","","","","","8","","3","./stim/Kofu_Japan_8_1_8/Kofu___Japan_3_7.jpg",""
"street view slide show","image-button-response","279","547508","0.0-279.0","90130","","","","","","","","","","","","","null","./stim/Kofu_Japan_8_1_8/Kofu___Japan_3_4.jpg","null","","","","","","8","","3","./stim/Kofu_Japan_8_1_8/Kofu___Japan_3_4.jpg",""
"street view slide show","image-button-response","280","548510","0.0-280.0","90130","","","","","","","","","","","","","null","./stim/Kofu_Japan_8_1_8/Kofu___Japan_3_6.jpg","null","","","","","","8","","3","./stim/Kofu_Japan_8_1_8/Kofu___Japan_3_6.jpg",""
"sv response","survey","281","553992","0.0-281.0","90130","","","","","","","","","","","","","5469","","{""prompt"":null,""ambiguous"":1,""objects"":1,""invisible"":1,""chaos"":null,""complex"":1}","","","","","","","","","","[]"
"","html-button-response","282","555032","0.0-282.0","90130","","","","","","","","","","","","","1039","<div class=""text-container""><h3>Click next to see the next neighborhood.</h3></div><br>","0","","","","","","","","","",""
"street view slide show","image-button-response","283","556036","0.0-283.0","90130","","","","","","","","","","","","","null","./stim/Honolulu_Hawaii_8_1_8/Honolulu___Hawaii_7_3.jpg","null","","","","","","7","","7","./stim/Honolulu_Hawaii_8_1_8/Honolulu___Hawaii_7_3.jpg",""
"street view slide show","image-button-response","284","557038","0.0-284.0","90130","","","","","","","","","","","","","null","./stim/Honolulu_Hawaii_8_1_8/Honolulu___Hawaii_7_1.jpg","null","","","","","","7","","7","./stim/Honolulu_Hawaii_8_1_8/Honolulu___Hawaii_7_1.jpg",""
"street view slide show","image-button-response","285","558042","0.0-285.0","90130","","","","","","","","","","","","","null","./stim/Honolulu_Hawaii_8_1_8/Honolulu___Hawaii_7_7.jpg","null","","","","","","7","","7","./stim/Honolulu_Hawaii_8_1_8/Honolulu___Hawaii_7_7.jpg",""
"street view slide show","image-button-response","286","559044","0.0-286.0","90130","","","","","","","","","","","","","null","./stim/Honolulu_Hawaii_8_1_8/Honolulu___Hawaii_7_8.jpg","null","","","","","","7","","7","./stim/Honolulu_Hawaii_8_1_8/Honolulu___Hawaii_7_8.jpg",""
"street view slide show","image-button-response","287","560047","0.0-287.0","90130","","","","","","","","","","","","","null","./stim/Honolulu_Hawaii_8_1_8/Honolulu___Hawaii_7_5.jpg","null","","","","","","7","","7","./stim/Honolulu_Hawaii_8_1_8/Honolulu___Hawaii_7_5.jpg",""
"sv response","survey","288","564456","0.0-288.0","90130","","","","","","","","","","","","","4396","","{""prompt"":null,""ambiguous"":1,""objects"":1,""invisible"":1,""chaos"":1,""complex"":1}","","","","","","","","","","[]"
"","html-button-response","289","565879","0.0-289.0","90130","","","","","","","","","","","","","1421","<div class=""text-container""><h3>Click next to see the next neighborhood.</h3></div><br>","0","","","","","","","","","",""
"street view slide show","image-button-response","290","566881","0.0-290.0","90130","","","","","","","","","","","","","null","./stim/Manila_Philippines_8_1_8/Manila___Philippines_7_2.jpg","null","","","","","","7","","7","./stim/Manila_Philippines_8_1_8/Manila___Philippines_7_2.jpg",""
"street view slide show","image-button-response","291","567883","0.0-291.0","90130","","","","","","","","","","","","","null","./stim/Manila_Philippines_8_1_8/Manila___Philippines_7_3.jpg","null","","","","","","7","","7","./stim/Manila_Philippines_8_1_8/Manila___Philippines_7_3.jpg",""
"street view slide show","image-button-response","292","568886","0.0-292.0","90130","","","","","","","","","","","","","null","./stim/Manila_Philippines_8_1_8/Manila___Philippines_7_1.jpg","null","","","","","","7","","7","./stim/Manila_Philippines_8_1_8/Manila___Philippines_7_1.jpg",""
"street view slide show","image-button-response","293","569889","0.0-293.0","90130","","","","","","","","","","","","","null","./stim/Manila_Philippines_8_1_8/Manila___Philippines_7_4.jpg","null","","","","","","7","","7","./stim/Manila_Philippines_8_1_8/Manila___Philippines_7_4.jpg",""
"street view slide show","image-button-response","294","570892","0.0-294.0","90130","","","","","","","","","","","","","null","./stim/Manila_Philippines_8_1_8/Manila___Philippines_7_5.jpg","null","","","","","","7","","7","./stim/Manila_Philippines_8_1_8/Manila___Philippines_7_5.jpg",""
"sv response","survey","295","575777","0.0-295.0","90130","","","","","","","","","","","","","4872","","{""prompt"":null,""ambiguous"":1,""objects"":1,""invisible"":1,""chaos"":1,""complex"":1}","","","","","","","","","","[]"
"","html-button-response","296","576685","0.0-296.0","90130","","","","","","","","","","","","","906","<div class=""text-container""><h3>Click next to see the next neighborhood.</h3></div><br>","0","","","","","","","","","",""
"street view slide show","image-button-response","297","577687","0.0-297.0","90130","","","","","","","","","","","","","null","./stim/DesMoines_Iowa_8_1_8/Des_Moines___Iowa_2_2.jpg","null","","","","","","8","","2","./stim/DesMoines_Iowa_8_1_8/Des_Moines___Iowa_2_2.jpg",""
"street view slide show","image-button-response","298","578689","0.0-298.0","90130","","","","","","","","","","","","","null","./stim/DesMoines_Iowa_8_1_8/Des_Moines___Iowa_2_3.jpg","null","","","","","","8","","2","./stim/DesMoines_Iowa_8_1_8/Des_Moines___Iowa_2_3.jpg",""
"street view slide show","image-button-response","299","579693","0.0-299.0","90130","","","","","","","","","","","","","null","./stim/DesMoines_Iowa_8_1_8/Des_Moines___Iowa_2_1.jpg","null","","","","","","8","","2","./stim/DesMoines_Iowa_8_1_8/Des_Moines___Iowa_2_1.jpg",""
"street view slide show","image-button-response","300","580696","0.0-300.0","90130","","","","","","","","","","","","","null","./stim/DesMoines_Iowa_8_1_8/Des_Moines___Iowa_2_4.jpg","null","","","","","","8","","2","./stim/DesMoines_Iowa_8_1_8/Des_Moines___Iowa_2_4.jpg",""
"street view slide show","image-button-response","301","581699","0.0-301.0","90130","","","","","","","","","","","","","null","./stim/DesMoines_Iowa_8_1_8/Des_Moines___Iowa_2_5.jpg","null","","","","","","8","","2","./stim/DesMoines_Iowa_8_1_8/Des_Moines___Iowa_2_5.jpg",""
"sv response","survey","302","591506","0.0-302.0","90130","","","","","","","","","","","","","9796","","{""prompt"":null,""ambiguous"":1,""objects"":1,""invisible"":1,""chaos"":1,""complex"":1}","","","","","","","","","","[]"
"","html-button-response","303","592319","0.0-303.0","90130","","","","","","","","","","","","","812","<div class=""text-container""><h3>Click next to see the next neighborhood.</h3></div><br>","0","","","","","","","","","",""
"street view slide show","image-button-response","304","593322","0.0-304.0","90130","","","","","","","","","","","","","null","./stim/Volgograd_Russia_8_1_8/Volgograd___Russia_5_4.jpg","null","","","","","","7","","5","./stim/Volgograd_Russia_8_1_8/Volgograd___Russia_5_4.jpg",""
"street view slide show","image-button-response","305","594325","0.0-305.0","90130","","","","","","","","","","","","","null","./stim/Volgograd_Russia_8_1_8/Volgograd___Russia_5_3.jpg","null","","","","","","7","","5","./stim/Volgograd_Russia_8_1_8/Volgograd___Russia_5_3.jpg",""
"street view slide show","image-button-response","306","595328","0.0-306.0","90130","","","","","","","","","","","","","null","./stim/Volgograd_Russia_8_1_8/Volgograd___Russia_5_1.jpg","null","","","","","","7","","5","./stim/Volgograd_Russia_8_1_8/Volgograd___Russia_5_1.jpg",""
"street view slide show","image-button-response","307","596331","0.0-307.0","90130","","","","","","","","","","","","","null","./stim/Volgograd_Russia_8_1_8/Volgograd___Russia_5_2.jpg","null","","","","","","7","","5","./stim/Volgograd_Russia_8_1_8/Volgograd___Russia_5_2.jpg",""
"street view slide show","image-button-response","308","597335","0.0-308.0","90130","","","","","","","","","","","","","null","./stim/Volgograd_Russia_8_1_8/Volgograd___Russia_5_5.jpg","null","","","","","","7","","5","./stim/Volgograd_Russia_8_1_8/Volgograd___Russia_5_5.jpg",""
"sv response","survey","309","602299","0.0-309.0","90130","","","","","","","","","","","","","4951","","{""prompt"":null,""ambiguous"":1,""objects"":1,""invisible"":1,""chaos"":1,""complex"":1}","","","","","","","","","","[]"
"","html-button-response","310","603215","0.0-310.0","90130","","","","","","","","","","","","","915","<div class=""text-container""><h3>Click next to see the next neighborhood.</h3></div><br>","0","","","","","","","","","",""
"street view slide show","image-button-response","311","604218","0.0-311.0","90130","","","","","","","","","","","","","null","./stim/SaintEtienne_France_8_1_8/Saint_Etienne___France_1_1.jpg","null","","","","","","8","","1","./stim/SaintEtienne_France_8_1_8/Saint_Etienne___France_1_1.jpg",""
"street view slide show","image-button-response","312","605221","0.0-312.0","90130","","","","","","","","","","","","","null","./stim/SaintEtienne_France_8_1_8/Saint_Etienne___France_1_3.jpg","null","","","","","","8","","1","./stim/SaintEtienne_France_8_1_8/Saint_Etienne___France_1_3.jpg",""
"street view slide show","image-button-response","313","606224","0.0-313.0","90130","","","","","","","","","","","","","null","./stim/SaintEtienne_France_8_1_8/Saint_Etienne___France_1_7.jpg","null","","","","","","8","","1","./stim/SaintEtienne_France_8_1_8/Saint_Etienne___France_1_7.jpg",""
"street view slide show","image-button-response","314","607227","0.0-314.0","90130","","","","","","","","","","","","","null","./stim/SaintEtienne_France_8_1_8/Saint_Etienne___France_1_4.jpg","null","","","","","","8","","1","./stim/SaintEtienne_France_8_1_8/Saint_Etienne___France_1_4.jpg",""
"street view slide show","image-button-response","315","608231","0.0-315.0","90130","","","","","","","","","","","","","null","./stim/SaintEtienne_France_8_1_8/Saint_Etienne___France_1_5.jpg","null","","","","","","8","","1","./stim/SaintEtienne_France_8_1_8/Saint_Etienne___France_1_5.jpg",""
"sv response","survey","316","614408","0.0-316.0","90130","","","","","","","","","","","","","6166","","{""prompt"":null,""ambiguous"":1,""objects"":1,""invisible"":1,""chaos"":1,""complex"":1}","","","","","","","","","","[]"
"","html-button-response","317","615362","0.0-317.0","90130","","","","","","","","","","","","","953","<div class=""text-container""><h3>Click next to see the next neighborhood.</h3></div><br>","0","","","","","","","","","",""
"street view slide show","image-button-response","318","616365","0.0-318.0","90130","","","","","","","","","","","","","null","./stim/Kofu_Japan_8_1_8/Kofu___Japan_1_3.jpg","null","","","","","","8","","1","./stim/Kofu_Japan_8_1_8/Kofu___Japan_1_3.jpg",""
"street view slide show","image-button-response","319","617367","0.0-319.0","90130","","","","","","","","","","","","","null","./stim/Kofu_Japan_8_1_8/Kofu___Japan_1_2.jpg","null","","","","","","8","","1","./stim/Kofu_Japan_8_1_8/Kofu___Japan_1_2.jpg",""
"street view slide show","image-button-response","320","618371","0.0-320.0","90130","","","","","","","","","","","","","null","./stim/Kofu_Japan_8_1_8/Kofu___Japan_1_1.jpg","null","","","","","","8","","1","./stim/Kofu_Japan_8_1_8/Kofu___Japan_1_1.jpg",""
"street view slide show","image-button-response","321","619374","0.0-321.0","90130","","","","","","","","","","","","","null","./stim/Kofu_Japan_8_1_8/Kofu___Japan_1_4.jpg","null","","","","","","8","","1","./stim/Kofu_Japan_8_1_8/Kofu___Japan_1_4.jpg",""
"street view slide show","image-button-response","322","620377","0.0-322.0","90130","","","","","","","","","","","","","null","./stim/Kofu_Japan_8_1_8/Kofu___Japan_1_5.jpg","null","","","","","","8","","1","./stim/Kofu_Japan_8_1_8/Kofu___Japan_1_5.jpg",""
"sv response","survey","323","624424","0.0-323.0","90130","","","","","","","","","","","","","4034","","{""prompt"":null,""ambiguous"":1,""objects"":1,""invisible"":1,""chaos"":1,""complex"":1}","","","","","","","","","","[]"
"","html-button-response","324","625245","0.0-324.0","90130","","","","","","","","","","","","","820","<div class=""text-container""><h3>Click next to see the next neighborhood.</h3></div><br>","0","","","","","","","","","",""
"street view slide show","image-button-response","325","626248","0.0-325.0","90130","","","","","","","","","","","","","null","./stim/Manila_Philippines_8_1_8/Manila___Philippines_6_5.jpg","null","","","","","","7","","6","./stim/Manila_Philippines_8_1_8/Manila___Philippines_6_5.jpg",""
"street view slide show","image-button-response","326","627250","0.0-326.0","90130","","","","","","","","","","","","","null","./stim/Manila_Philippines_8_1_8/Manila___Philippines_6_3.jpg","null","","","","","","7","","6","./stim/Manila_Philippines_8_1_8/Manila___Philippines_6_3.jpg",""
"street view slide show","image-button-response","327","628254","0.0-327.0","90130","","","","","","","","","","","","","null","./stim/Manila_Philippines_8_1_8/Manila___Philippines_6_2.jpg","null","","","","","","7","","6","./stim/Manila_Philippines_8_1_8/Manila___Philippines_6_2.jpg",""
"street view slide show","image-button-response","328","629256","0.0-328.0","90130","","","","","","","","","","","","","null","./stim/Manila_Philippines_8_1_8/Manila___Philippines_6_4.jpg","null","","","","","","7","","6","./stim/Manila_Philippines_8_1_8/Manila___Philippines_6_4.jpg",""
"street view slide show","image-button-response","329","630259","0.0-329.0","90130","","","","","","","","","","","","","null","./stim/Manila_Philippines_8_1_8/Manila___Philippines_6_1.jpg","null","","","","","","7","","6","./stim/Manila_Philippines_8_1_8/Manila___Philippines_6_1.jpg",""
"sv response","survey","330","635007","0.0-330.0","90130","","","","","","","","","","","","","4737","","{""prompt"":null,""ambiguous"":1,""objects"":1,""invisible"":1,""chaos"":1,""complex"":1}","","","","","","","","","","[]"
"","html-button-response","331","635765","0.0-331.0","90130","","","","","","","","","","","","","756","<div class=""text-container""><h3>Click next to see the next neighborhood.</h3></div><br>","0","","","","","","","","","",""
"street view slide show","image-button-response","332","636768","0.0-332.0","90130","","","","","","","","","","","","","null","./stim/SaintEtienne_France_8_1_8/Saint_Etienne___France_6_1.jpg","null","","","","","","8","","6","./stim/SaintEtienne_France_8_1_8/Saint_Etienne___France_6_1.jpg",""
"street view slide show","image-button-response","333","637771","0.0-333.0","90130","","","","","","","","","","","","","null","./stim/SaintEtienne_France_8_1_8/Saint_Etienne___France_6_4.jpg","null","","","","","","8","","6","./stim/SaintEtienne_France_8_1_8/Saint_Etienne___France_6_4.jpg",""
"street view slide show","image-button-response","334","638775","0.0-334.0","90130","","","","","","","","","","","","","null","./stim/SaintEtienne_France_8_1_8/Saint_Etienne___France_6_5.jpg","null","","","","","","8","","6","./stim/SaintEtienne_France_8_1_8/Saint_Etienne___France_6_5.jpg",""
"street view slide show","image-button-response","335","639776","0.0-335.0","90130","","","","","","","","","","","","","null","./stim/SaintEtienne_France_8_1_8/Saint_Etienne___France_6_3.jpg","null","","","","","","8","","6","./stim/SaintEtienne_France_8_1_8/Saint_Etienne___France_6_3.jpg",""
"street view slide show","image-button-response","336","640779","0.0-336.0","90130","","","","","","","","","","","","","null","./stim/SaintEtienne_France_8_1_8/Saint_Etienne___France_6_2.jpg","null","","","","","","8","","6","./stim/SaintEtienne_France_8_1_8/Saint_Etienne___France_6_2.jpg",""
"sv response","survey","337","644872","0.0-337.0","90130","","","","","","","","","","","","","4079","","{""prompt"":null,""ambiguous"":1,""objects"":1,""invisible"":1,""chaos"":1,""complex"":1}","","","","","","","","","","[]"
"","html-button-response","338","645654","0.0-338.0","90130","","","","","","","","","","","","","781","<div class=""text-container""><h3>Click next to see the next neighborhood.</h3></div><br>","0","","","","","","","","","",""
"street view slide show","image-button-response","339","646657","0.0-339.0","90130","","","","","","","","","","","","","null","./stim/Pau_France_8_1_8/Pau___France_6_1.jpg","null","","","","","","8","","6","./stim/Pau_France_8_1_8/Pau___France_6_1.jpg",""
"street view slide show","image-button-response","340","647660","0.0-340.0","90130","","","","","","","","","","","","","null","./stim/Pau_France_8_1_8/Pau___France_6_5.jpg","null","","","","","","8","","6","./stim/Pau_France_8_1_8/Pau___France_6_5.jpg",""
"street view slide show","image-button-response","341","648663","0.0-341.0","90130","","","","","","","","","","","","","null","./stim/Pau_France_8_1_8/Pau___France_6_3.jpg","null","","","","","","8","","6","./stim/Pau_France_8_1_8/Pau___France_6_3.jpg",""
"street view slide show","image-button-response","342","649665","0.0-342.0","90130","","","","","","","","","","","","","null","./stim/Pau_France_8_1_8/Pau___France_6_2.jpg","null","","","","","","8","","6","./stim/Pau_France_8_1_8/Pau___France_6_2.jpg",""
"street view slide show","image-button-response","343","650668","0.0-343.0","90130","","","","","","","","","","","","","null","./stim/Pau_France_8_1_8/Pau___France_6_4.jpg","null","","","","","","8","","6","./stim/Pau_France_8_1_8/Pau___France_6_4.jpg",""
"sv response","survey","344","655837","0.0-344.0","90130","","","","","","","","","","","","","5160","","{""prompt"":null,""ambiguous"":1,""objects"":1,""invisible"":1,""chaos"":1,""complex"":1}","","","","","","","","","","[]"
"demographics1","survey-html-form","345","668465","0.0-345.0","90130","","","","","","","","","","","","","12623","","{""zipcode"":""48104"",""age"":""21"",""sex"":""male"",""gender"":""man"",""gender-self-describe"":"""",""ethnicity"":""caucasian"",""ethnicity-self-describe"":""""}","","","","","","","","","",""
"end-survey","survey-text","346","669997","0.0-346.0","90130","","","","","","","","","","","","","1518","","{""comment"":""""}","","","","","","","","","",""
"end-survey","html-button-response","347","671465","0.0-347.0","90130","","","","","","","","","","","","","1466","[""You've reached the end of the survey. <br><br> \n<b>Do not close or refresh this window.</b><br>\nIn the next page, you will see a pop-up like below after a few moment.<br><br>\n<img src='assets/img/chrome.PNG'> <br><br>\nPress the <b>'Leave'</b> button to exit from the experiment without losing your record.<br>\nYou will be automatically redirected to SONA once you click the <b>'Leave'</b> button. <br><br>\n""]","0","","","","","","","","","",""
